sep=,
Measurement Mode:,Extended (Quaternion)
StartTime:,Wed, 18 Aug 2021 21:57:44 GMT
© Xsens Technologies B. V. 2005-2021

Timestamp,Address,Quaternion_w,Quaternion_x,Quaternion_y,Quaternion_z,FreeAcc_x,FreeAcc_y,FreeAcc_z,Status,ClipCountAcc,ClipCountGyr
563711048,d4-ca-6e-f1-69-20,0.6316172480583191,-0.37226471304893494,-0.4071798026561737,-0.5446863174438477,-0.020589342340826988,-0.01687813363969326,0.08476638793945312,0,0,0
563711048,d4-ca-6e-f1-65-50,0.8102353811264038,0.12324042618274689,-0.5391992330551147,0.1938932240009308,0.04040622338652611,0.017480166628956795,0.019621849060058594,0,0,0
563711048,d4-ca-6e-f1-69-80,0.4005697965621948,-0.49288123846054077,-0.25167328119277954,-0.730255126953125,-0.025756962597370148,-0.018097173422574997,0.018785476684570312,0,0,0
563761049,d4-ca-6e-f1-74-d2,0.8142196536064148,-0.12003207951784134,-0.5430605411529541,-0.16650500893592834,0.020267261192202568,-0.04151105135679245,-0.027097702026367188,0,0,0
563811050,d4-ca-6e-f1-6a-7d,0.4112461507320404,0.47579121589660645,-0.2875291705131531,0.7223754525184631,-0.007862850092351437,-0.010864741168916225,0.15792274475097656,0,0,0
563811050,d4-ca-6e-f1-69-80,0.40053582191467285,-0.49286651611328125,-0.25169429183006287,-0.7302765250205994,-0.0032258806750178337,-0.02888329327106476,0.018388748168945312,0,0,0
563811050,d4-ca-6e-f1-69-20,0.6316258907318115,-0.3722497224807739,-0.40717098116874695,-0.5446930527687073,-0.008620894514024258,-0.021247364580631256,0.0741729736328125,0,0,0
563811050,d4-ca-6e-f1-65-50,0.8102290630340576,0.12329310923814774,-0.5391917824745178,0.19390718638896942,0.015213632956147194,0.021975792944431305,0.016287803649902344,0,0,0
563911052,d4-ca-6e-f1-69-20,0.6316114664077759,-0.3722783029079437,-0.4071606397628784,-0.5446979999542236,-0.018193284049630165,0.004975845571607351,0.08463287353515625,0,0,0
563911052,d4-ca-6e-f1-65-50,0.8102034330368042,0.12331491708755493,-0.5392168164253235,0.19393064081668854,0.0017764809308573604,0.0004045584355480969,0.009958267211914062,0,0,0
563911052,d4-ca-6e-f1-6a-7d,0.4112849831581116,0.47577103972435,-0.28751733899116516,0.7223714590072632,-0.02164722979068756,-0.014238893054425716,0.14749431610107422,0,0,0
563911052,d4-ca-6e-f1-69-80,0.40057626366615295,-0.49285492300987244,-0.2517164647579193,-0.730254590511322,0.000005476067599374801,-0.016953233629465103,0.019906044006347656,0,0,0
564011054,d4-ca-6e-f1-69-20,0.6316141486167908,-0.37226971983909607,-0.4071599841117859,-0.5447012782096863,-0.018106114119291306,-0.00712268752977252,0.08959007263183594,0,0,0
564011054,d4-ca-6e-f1-65-50,0.8101964592933655,0.12331543117761612,-0.5392289161682129,0.19392582774162292,0.028505053371191025,0.001105047995224595,0.02168750762939453,0,0,0
564011054,d4-ca-6e-f1-6a-7d,0.41131505370140076,0.4757591784000397,-0.287479430437088,0.7223770618438721,0.005976401269435883,-0.002178804250434041,0.16248035430908203,0,0,0
564011054,d4-ca-6e-f1-69-80,0.4006005823612213,-0.4928593635559082,-0.25171229243278503,-0.7302395701408386,-0.03179393708705902,-0.024037253111600876,0.03086090087890625,0,0,0
564011054,d4-ca-6e-f1-74-d2,0.8141956329345703,-0.12016570568084717,-0.5430388450622559,-0.16659687459468842,0.0031068301759660244,-0.05684593692421913,-0.026403427124023438,0,0,0
564111056,d4-ca-6e-f1-6a-7d,0.4113519489765167,0.47571149468421936,-0.2874721884727478,0.7223905324935913,-0.01263261679559946,-0.030510189011693,0.1583242416381836,0,0,0
564111056,d4-ca-6e-f1-69-80,0.4006595015525818,-0.49283015727996826,-0.2517573833465576,-0.7302114367485046,0.008334015496075153,-0.004315811675041914,0.019786834716796875,0,0,0
564111056,d4-ca-6e-f1-69-20,0.6316516995429993,-0.3722341060638428,-0.40714624524116516,-0.5446925163269043,-0.0031817068811506033,0.028208676725625992,0.07577228546142578,0,0,0
564111056,d4-ca-6e-f1-65-50,0.8102125525474548,0.12331464886665344,-0.5392119884490967,0.1939060240983963,0.010839037597179413,0.015535491518676281,0.019975662231445312,0,0,0
564211058,d4-ca-6e-f1-69-80,0.4006826877593994,-0.4928480088710785,-0.25180405378341675,-0.730170488357544,-0.03143799304962158,-0.024263225495815277,0.02936077117919922,0,0,0
564211058,d4-ca-6e-f1-69-20,0.6316447854042053,-0.3722743093967438,-0.40714406967163086,-0.5446745753288269,-0.019371867179870605,-0.026599159464240074,0.10207366943359375,0,0,0
564211058,d4-ca-6e-f1-65-50,0.8101857900619507,0.12331067770719528,-0.5392608642578125,0.19388432800769806,0.03939102962613106,0.01673184521496296,0.026868820190429688,0,0,0
564211058,d4-ca-6e-f1-6a-7d,0.41133156418800354,0.47570064663887024,-0.28747430443763733,0.7224083542823792,-0.009068256244063377,0.01671474613249302,0.16388702392578125,0,0,0
564261059,d4-ca-6e-f1-74-d2,0.8141837120056152,-0.12019645422697067,-0.5430765151977539,-0.16651001572608948,0.002917738165706396,-0.038126058876514435,-0.02391529083251953,0,0,0
564311060,d4-ca-6e-f1-69-20,0.6316660046577454,-0.37226101756095886,-0.4071205258369446,-0.5446767210960388,-0.007426888681948185,0.0026895313058048487,0.07488632202148438,0,0,0
564311060,d4-ca-6e-f1-65-50,0.810196042060852,0.12333473563194275,-0.5392346978187561,0.19389885663986206,0.013254765421152115,0.02360520325601101,0.022812843322753906,0,0,0
564311060,d4-ca-6e-f1-6a-7d,0.4113467335700989,0.47567951679229736,-0.28745564818382263,0.7224211096763611,-0.017187029123306274,-0.014516272582113743,0.15825939178466797,0,0,0
564311060,d4-ca-6e-f1-69-80,0.4007822275161743,-0.4928099811077118,-0.2519054710865021,-0.7301067113876343,-0.0003418630512896925,-0.00653216615319252,0.024819374084472656,0,0,0
564411062,d4-ca-6e-f1-69-80,0.40077653527259827,-0.4928413927555084,-0.25191932916641235,-0.7300837635993958,-0.002057548612356186,-0.008346420712769032,0.03199291229248047,0,0,0
564411062,d4-ca-6e-f1-69-20,0.6316785216331482,-0.3722715973854065,-0.40713128447532654,-0.5446467995643616,-0.014016497880220413,-0.02239823341369629,0.08521270751953125,0,0,0
564411062,d4-ca-6e-f1-65-50,0.8101775050163269,0.12332775443792343,-0.5392582416534424,0.19391575455665588,0.03193374350667,0.010889328084886074,0.026599884033203125,0,0,0
564411062,d4-ca-6e-f1-6a-7d,0.41134071350097656,0.47566521167755127,-0.28743597865104675,0.7224416732788086,0.005658789072185755,-0.00609877472743392,0.15577220916748047,0,0,0
564511064,d4-ca-6e-f1-69-80,0.4006679356098175,-0.49288511276245117,-0.25184914469718933,-0.7301380634307861,-0.0033505710307508707,-0.008341056294739246,0.02422618865966797,0,0,0
564511064,d4-ca-6e-f1-74-d2,0.8141555786132812,-0.12024374306201935,-0.5431362986564636,-0.16641920804977417,0.022205565124750137,-0.025618048384785652,-0.03634929656982422,0,0,0
564511064,d4-ca-6e-f1-69-20,0.6316792368888855,-0.3722732663154602,-0.4071292281150818,-0.5446463823318481,-0.008234663866460323,-0.012983197346329689,0.07509803771972656,0,0,0
564511064,d4-ca-6e-f1-65-50,0.8101741075515747,0.12330327183008194,-0.5392687320709229,0.19391584396362305,0.010209624655544758,0.007380509749054909,0.015152931213378906,0,0,0
564511064,d4-ca-6e-f1-6a-7d,0.41136595606803894,0.47566673159599304,-0.28738105297088623,0.7224482297897339,-0.0147887347266078,-0.021814417093992233,0.15771102905273438,0,0,0
564611066,d4-ca-6e-f1-69-20,0.6317172050476074,-0.3728930354118347,-0.40689346194267273,-0.5443545579910278,0.005341289099305868,0.013604786247015,0.09006690979003906,0,0,0
564611066,d4-ca-6e-f1-65-50,0.8095710873603821,0.12380093336105347,-0.5402027368545532,0.19351798295974731,-0.018379023298621178,-0.004759820178151131,0.027080535888671875,0,0,0
564611066,d4-ca-6e-f1-6a-7d,0.4116291105747223,0.47597774863243103,-0.2871335744857788,0.7221917510032654,0.010995607823133469,-0.014077292755246162,0.16431808471679688,0,0,0
564611066,d4-ca-6e-f1-69-80,0.40053874254226685,-0.493349552154541,-0.25225937366485596,-0.7297534942626953,0.012980068102478981,0.0012094286503270268,0.024466514587402344,0,0,0
564711068,d4-ca-6e-f1-69-80,0.4005201756954193,-0.49336135387420654,-0.25224846601486206,-0.7297596335411072,-0.013707378879189491,0.0011814894387498498,0.02783679962158203,0,0,0
564711068,d4-ca-6e-f1-69-20,0.6317123770713806,-0.37290897965431213,-0.40688812732696533,-0.544353187084198,-0.015041304752230644,-0.013655300252139568,0.08687782287597656,0,0,0
564711068,d4-ca-6e-f1-65-50,0.8095685243606567,0.12383642047643661,-0.5402141213417053,0.19347378611564636,0.000152882857946679,-0.006969469133764505,0.030231475830078125,0,0,0
564711068,d4-ca-6e-f1-6a-7d,0.41164255142211914,0.4759799540042877,-0.28713563084602356,0.7221818566322327,0.006350114941596985,0.012391110882163048,0.15311527252197266,0,0,0
564761069,d4-ca-6e-f1-74-d2,0.8137184381484985,-0.12112735956907272,-0.5439168214797974,-0.16536349058151245,-0.002968698972836137,0.004489034414291382,-0.032738685607910156,0,0,0
564811070,d4-ca-6e-f1-69-20,0.6317193508148193,-0.3728925883769989,-0.4068690240383148,-0.5443705916404724,0.010994601994752884,-0.0037094210274517536,0.08344173431396484,0,0,0
564811070,d4-ca-6e-f1-65-50,0.8095716834068298,0.12382767349481583,-0.5402162075042725,0.1934603750705719,-0.016977597028017044,-0.008960634469985962,0.015834808349609375,0,0,0
564811070,d4-ca-6e-f1-6a-7d,0.41166046261787415,0.47597506642341614,-0.2871028780937195,0.7221879363059998,0.0064162747003138065,-0.014525660313665867,0.15378093719482422,0,0,0
564811070,d4-ca-6e-f1-69-80,0.40052923560142517,-0.49333903193473816,-0.2522525191307068,-0.7297682166099548,0.004833803046494722,0.0036021347623318434,0.022441864013671875,0,0,0
564911072,d4-ca-6e-f1-69-20,0.6317310333251953,-0.37287649512290955,-0.40685293078422546,-0.544380247592926,-0.014987661503255367,-0.01102723553776741,0.0880746841430664,0,0,0
564911072,d4-ca-6e-f1-65-50,0.8095578551292419,0.12384641915559769,-0.5402219295501709,0.19349034130573273,0.0119248628616333,-0.0002697801392059773,0.027106285095214844,0,0,0
564911072,d4-ca-6e-f1-6a-7d,0.4116508662700653,0.47598645091056824,-0.2870974838733673,0.7221880555152893,-0.005520211067050695,0.010479181073606014,0.15580463409423828,0,0,0
564911072,d4-ca-6e-f1-69-80,0.40052735805511475,-0.4933096170425415,-0.2522602677345276,-0.7297865748405457,-0.008441525511443615,-0.0009573060087859631,0.020948410034179688,0,0,0
565011074,d4-ca-6e-f1-6a-7d,0.4116380512714386,0.4759846329689026,-0.2870810925960541,0.7222030758857727,0.008362178690731525,-0.017095835879445076,0.1569223403930664,0,0,0
565011074,d4-ca-6e-f1-69-80,0.4005526006221771,-0.49325546622276306,-0.2523115277290344,-0.7297915816307068,0.00431916443631053,0.005146609153598547,0.009462356567382812,0,0,0
565011074,d4-ca-6e-f1-74-d2,0.8137232661247253,-0.1210736557841301,-0.5439340472221375,-0.16532212495803833,-0.002912373747676611,0.02395768277347088,-0.03161907196044922,0,0,0
565011074,d4-ca-6e-f1-69-20,0.6317307949066162,-0.37285852432250977,-0.4068317115306854,-0.5444085597991943,0.010208060033619404,0.02581842802464962,0.0830984115600586,0,0,0
565011074,d4-ca-6e-f1-65-50,0.8095641136169434,0.12384524196386337,-0.5402072072029114,0.19350643455982208,-0.02358553372323513,0.005730760283768177,0.02904796600341797,0,0,0
565111076,d4-ca-6e-f1-6a-7d,0.4116380512714386,0.4760192632675171,-0.28710949420928955,0.7221688628196716,0.004542565438896418,0.01466490887105465,0.16219615936279297,0,0,0
565111076,d4-ca-6e-f1-69-80,0.4005598723888397,-0.4932669699192047,-0.25234726071357727,-0.729767382144928,-0.014594054780900478,-0.011265723966062069,0.020447731018066406,0,0,0
565111076,d4-ca-6e-f1-69-20,0.6317306756973267,-0.37290680408477783,-0.40682560205459595,-0.5443801879882812,-0.0023050890304148197,-0.012073946185410023,0.08921623229980469,0,0,0
565111076,d4-ca-6e-f1-65-50,0.8095405697822571,0.12383631616830826,-0.5402525663375854,0.19348366558551788,0.024822454899549484,0.0018283359240740538,0.020376205444335938,0,0,0
565211078,d4-ca-6e-f1-69-20,0.6317521929740906,-0.37287774682044983,-0.40681588649749756,-0.5443825721740723,-0.0071231345646083355,-0.0011537738610059023,0.0832986831665039,0,0,0
565211078,d4-ca-6e-f1-65-50,0.8095376491546631,0.12384453415870667,-0.5402440428733826,0.19351422786712646,-0.00580507842823863,-0.003951821010559797,0.02130603790283203,0,0,0
565211078,d4-ca-6e-f1-69-80,0.4005845785140991,-0.4932423532009125,-0.2523840367794037,-0.7297577857971191,-0.009468008764088154,-0.006204943172633648,0.027059555053710938,0,0,0
565211078,d4-ca-6e-f1-6a-7d,0.4116514027118683,0.4760138988494873,-0.28709807991981506,0.7221694588661194,-0.005016077775508165,0.0011488565942272544,0.16153907775878906,0,0,0
565261079,d4-ca-6e-f1-74-d2,0.8137182593345642,-0.12105505168437958,-0.5439549684524536,-0.16529163718223572,-0.005870344117283821,0.03967103362083435,-0.03429126739501953,0,0,0
565311080,d4-ca-6e-f1-69-80,0.40063998103141785,-0.4932417571544647,-0.2524231970310211,-0.7297141551971436,0.013516051694750786,0.0034302533604204655,0.0158843994140625,0,0,0
565311080,d4-ca-6e-f1-69-20,0.6317734122276306,-0.3728630542755127,-0.40683019161224365,-0.5443572998046875,0.006610842887312174,0.030218280851840973,0.08019161224365234,0,0,0
565311080,d4-ca-6e-f1-65-50,0.8095451593399048,0.12383487820625305,-0.5402393341064453,0.19350244104862213,-0.02854260429739952,-0.007085360586643219,0.017554283142089844,0,0,0
565311080,d4-ca-6e-f1-6a-7d,0.41165927052497864,0.4760236442089081,-0.28709810972213745,0.7221584916114807,0.0044937278144061565,-0.012680336833000183,0.15112686157226562,0,0,0
565411082,d4-ca-6e-f1-69-20,0.6317888498306274,-0.372854083776474,-0.40684106945991516,-0.5443373322486877,-0.020796986296772957,-0.01973574608564377,0.07915115356445312,0,0,0
565411082,d4-ca-6e-f1-65-50,0.8095295429229736,0.12383969873189926,-0.5402659773826599,0.19349026679992676,0.01955408602952957,0.005640575662255287,0.014371871948242188,0,0,0
565411082,d4-ca-6e-f1-6a-7d,0.4116489887237549,0.4760352075099945,-0.28712356090545654,0.7221465110778809,-0.00038421875797212124,0.010635193437337875,0.14873981475830078,0,0,0
565411082,d4-ca-6e-f1-69-80,0.400696724653244,-0.4932204484939575,-0.25243836641311646,-0.729692280292511,-0.038119688630104065,-0.007780932821333408,0.02353668212890625,0,0,0
565511084,d4-ca-6e-f1-69-20,0.6317859888076782,-0.37281274795532227,-0.4068436324596405,-0.5443670749664307,0.020518489181995392,0.041135549545288086,0.07113456726074219,0,0,0
565511084,d4-ca-6e-f1-65-50,0.8095411062240601,0.12384220957756042,-0.5402611494064331,0.19345346093177795,-0.04298511892557144,-0.007480866741389036,0.0265655517578125,0,0,0
565511084,d4-ca-6e-f1-6a-7d,0.4116710424423218,0.4760177731513977,-0.28711897134780884,0.7221473455429077,-0.011739905923604965,-0.045114077627658844,0.1459064483642578,0,0,0
565511084,d4-ca-6e-f1-69-80,0.4007275104522705,-0.493186891078949,-0.25244492292404175,-0.729695737361908,0.04114001989364624,0.026037247851490974,0.020336151123046875,0,0,0
565511084,d4-ca-6e-f1-74-d2,0.8136959075927734,-0.12106670439243317,-0.5439951419830322,-0.16526107490062714,-0.019992340356111526,0.047759633511304855,-0.06314468383789062,0,0,0
565611086,d4-ca-6e-f1-69-80,0.4007370173931122,-0.493217796087265,-0.2524522840976715,-0.729667067527771,-0.04353183135390282,-0.007784062065184116,0.028670310974121094,0,0,0
565611086,d4-ca-6e-f1-69-20,0.6317742466926575,-0.3728713095188141,-0.4068298935890198,-0.5443507432937622,-0.01953190378844738,-0.04774348437786102,0.09785270690917969,0,0,0
565611086,d4-ca-6e-f1-65-50,0.8095107078552246,0.12380371242761612,-0.5403250455856323,0.19342674314975739,0.03386266157031059,-0.02714006043970585,0.02064228057861328,0,0,0
565611086,d4-ca-6e-f1-6a-7d,0.41167914867401123,0.47602662444114685,-0.2872004210948944,0.7221044301986694,0.0130486860871315,0.03726989030838013,0.17152976989746094,0,0,0
565711088,d4-ca-6e-f1-69-80,0.4007702171802521,-0.4931730329990387,-0.25246670842170715,-0.7296741604804993,0.03915611654520035,0.0020569898188114166,0.027069091796875,0,0,0
565711088,d4-ca-6e-f1-69-20,0.631780207157135,-0.37283504009246826,-0.40677979588508606,-0.5444062948226929,0.013390214182436466,0.024368947371840477,0.08136463165283203,0,0,0
565711088,d4-ca-6e-f1-65-50,0.8095253109931946,0.12380370497703552,-0.5403176546096802,0.19338618218898773,-0.03931548073887825,0.021869514137506485,0.019850730895996094,0,0,0
565711088,d4-ca-6e-f1-6a-7d,0.4117159843444824,0.4760114252567291,-0.28716686367988586,0.7221068739891052,-0.011740241199731827,-0.03635594621300697,0.1610851287841797,0,0,0
565761089,d4-ca-6e-f1-74-d2,0.8136765956878662,-0.12105491757392883,-0.5440462827682495,-0.16519570350646973,-0.004315141122788191,0.019394777715206146,-0.032509803771972656,0,0,0
565811090,d4-ca-6e-f1-69-20,0.6317718029022217,-0.3728693425655365,-0.40682023763656616,-0.5443622469902039,-0.0009812219068408012,-0.013457491993904114,0.07032394409179688,0,0,0
565811090,d4-ca-6e-f1-65-50,0.8094969391822815,0.12377715110778809,-0.540360152721405,0.193402960896492,0.0017733518034219742,-0.021227248013019562,0.02121734619140625,0,0,0
565811090,d4-ca-6e-f1-6a-7d,0.4117087721824646,0.4760283827781677,-0.2871954143047333,0.7220884561538696,0.016618970781564713,0.0036510841455310583,0.1572885513305664,0,0,0
565811090,d4-ca-6e-f1-69-80,0.40079382061958313,-0.4932103753089905,-0.25247302651405334,-0.7296337485313416,-0.011245942674577236,0.030110100284218788,0.040566444396972656,0,0,0
565911092,d4-ca-6e-f1-6a-7d,0.41171422600746155,0.47600340843200684,-0.28717705607414246,0.7221091389656067,-0.0034422113094478846,-0.012951681390404701,0.15086078643798828,0,0,0
565911092,d4-ca-6e-f1-69-80,0.40081992745399475,-0.493180513381958,-0.2525053024291992,-0.7296284437179565,0.015205809846520424,-0.008706723339855671,0.03433704376220703,0,0,0
565911092,d4-ca-6e-f1-69-20,0.6317931413650513,-0.3728266656398773,-0.40679240226745605,-0.5443873405456543,0.005772222299128771,0.014578408561646938,0.0940694808959961,0,0,0
565911092,d4-ca-6e-f1-65-50,0.8095117211341858,0.1237652525305748,-0.5403487086296082,0.19338133931159973,-0.022406727075576782,0.008767742663621902,0.02631092071533203,0,0,0
566011094,d4-ca-6e-f1-74-d2,0.8136557936668396,-0.1210823729634285,-0.5440715551376343,-0.16519521176815033,-0.026964155957102776,-0.002211660612374544,-0.01833820343017578,0,0,0
566011094,d4-ca-6e-f1-69-20,0.6318033933639526,-0.37282201647758484,-0.4067826271057129,-0.5443861484527588,-0.004428462125360966,0.0017822922673076391,0.08053016662597656,0,0,0
566011094,d4-ca-6e-f1-65-50,0.8095179796218872,0.12373694032430649,-0.5403499603271484,0.19336935877799988,-0.020869851112365723,-0.009371227584779263,0.01653766632080078,0,0,0
566011094,d4-ca-6e-f1-6a-7d,0.4116992652416229,0.47602295875549316,-0.2871929407119751,0.7220984101295471,0.01519988663494587,-0.015758110210299492,0.14834117889404297,0,0,0
566011094,d4-ca-6e-f1-69-80,0.4008515477180481,-0.4931672513484955,-0.2525157332420349,-0.7296165227890015,-0.003689081408083439,0.017001289874315262,0.025938987731933594,0,0,0
566111096,d4-ca-6e-f1-6a-7d,0.4116854667663574,0.4760315418243408,-0.28719282150268555,0.7221006751060486,0.0027065183967351913,0.008153305388987064,0.1587390899658203,0,0,0
566111096,d4-ca-6e-f1-65-50,0.8095058798789978,0.12373174726963043,-0.5403728485107422,0.19335970282554626,0.007414818741381168,0.01577252708375454,0.02695941925048828,0,0,0
566111096,d4-ca-6e-f1-69-80,0.4008804261684418,-0.4931779205799103,-0.2525121569633484,-0.7295946478843689,-0.00745672732591629,-0.021757198497653008,0.02964305877685547,0,0,0
566111096,d4-ca-6e-f1-69-20,0.6317880749702454,-0.37284085154533386,-0.40679362416267395,-0.5443827509880066,-0.0009224379900842905,-0.029206885024905205,0.08146095275878906,0,0,0
566211098,d4-ca-6e-f1-69-80,0.4008984863758087,-0.49316373467445374,-0.2525269091129303,-0.7295892238616943,0.012590931728482246,0.01667540706694126,0.010774612426757812,0,0,0
566211098,d4-ca-6e-f1-69-20,0.6317831873893738,-0.37284043431282043,-0.40678897500038147,-0.5443922877311707,0.004332575015723705,0.022401362657546997,0.0719919204711914,0,0,0
566211098,d4-ca-6e-f1-65-50,0.8095142841339111,0.12372390180826187,-0.5403561592102051,0.19337621331214905,-0.017031239345669746,-0.0033377190120518208,0.01264190673828125,0,0,0
566211098,d4-ca-6e-f1-6a-7d,0.4116989076137543,0.47601184248924255,-0.2871687412261963,0.7221155762672424,-0.0017589351627975702,-0.019628014415502548,0.14896488189697266,0,0,0
566261099,d4-ca-6e-f1-74-d2,0.8136559128761292,-0.12108185887336731,-0.5440755486488342,-0.16518212854862213,-0.01706119067966938,-0.011166148819029331,-0.03637886047363281,0,0,0
566311100,d4-ca-6e-f1-69-80,0.4009222388267517,-0.4931955635547638,-0.25254759192466736,-0.729547381401062,-0.03461042419075966,-0.042908452451229095,0.014401435852050781,0,0,0
566311100,d4-ca-6e-f1-69-20,0.6317774057388306,-0.3728788197040558,-0.406781941652298,-0.5443777441978455,-0.0043674432672560215,-0.041564468294382095,0.0898284912109375,0,0,0
566311100,d4-ca-6e-f1-65-50,0.8094935417175293,0.12368953227996826,-0.5403941869735718,0.19337868690490723,0.026584630832076073,0.0010579986264929175,0.008631706237792969,0,0,0
566311100,d4-ca-6e-f1-6a-7d,0.4117027819156647,0.47602248191833496,-0.2872089147567749,0.7220903038978577,-0.00037527826498262584,0.0293298177421093,0.15564918518066406,0,0,0
566411102,d4-ca-6e-f1-69-20,0.6317963600158691,-0.37283071875572205,-0.40674588084220886,-0.5444156527519226,0.0008149282075464725,0.02075764909386635,0.09093379974365234,0,0,0
566411102,d4-ca-6e-f1-65-50,0.8095100522041321,0.12370333075523376,-0.5403768420219421,0.1933492124080658,-0.0176526065915823,0.0028257626108825207,0.02644634246826172,0,0,0
566411102,d4-ca-6e-f1-6a-7d,0.4117299020290375,0.47598904371261597,-0.2871672809123993,0.7221136093139648,0.014810862950980663,-0.022174496203660965,0.1445026397705078,0,0,0
566411102,d4-ca-6e-f1-69-80,0.4009637236595154,-0.49316391348838806,-0.25255879759788513,-0.7295421361923218,0.03218664973974228,0.015764592215418816,0.021620750427246094,0,0,0
566511104,d4-ca-6e-f1-69-80,0.4009632468223572,-0.4932030737400055,-0.252564936876297,-0.7295137643814087,0.0064767347648739815,-0.025166217237710953,0.02510833740234375,0,0,0
566511104,d4-ca-6e-f1-74-d2,0.8136647939682007,-0.1210353896021843,-0.544090211391449,-0.16512449085712433,0.006271773483604193,0.00698980875313282,-0.030689239501953125,0,0,0
566511104,d4-ca-6e-f1-69-20,0.6317946314811707,-0.37287211418151855,-0.4067419171333313,-0.5443923473358154,0.01772793009877205,0.009967783465981483,0.09243011474609375,0,0,0
566511104,d4-ca-6e-f1-65-50,0.8094907402992249,0.12368907034397125,-0.5404083132743835,0.19335097074508667,-0.006372801493853331,-0.0064999801106750965,0.02093219757080078,0,0,0
566511104,d4-ca-6e-f1-6a-7d,0.41172534227371216,0.4759911298751831,-0.2871805429458618,0.7221094369888306,-0.008013274520635605,0.0008439849480055273,0.15409183502197266,0,0,0
566611106,d4-ca-6e-f1-69-20,0.6317905783653259,-0.3728580176830292,-0.4067208766937256,-0.544422447681427,-0.0014973132638260722,0.007193541154265404,0.08304309844970703,0,0,0
566611106,d4-ca-6e-f1-65-50,0.8094984292984009,0.12367972731590271,-0.5403984785079956,0.19335293769836426,-0.00767677603289485,-0.009999522939324379,0.024143218994140625,0,0,0
566611106,d4-ca-6e-f1-6a-7d,0.411737322807312,0.47598353028297424,-0.28718605637550354,0.7221054434776306,0.02694113366305828,-0.017585106194019318,0.1647510528564453,0,0,0
566611106,d4-ca-6e-f1-69-80,0.4009642004966736,-0.49319562315940857,-0.2525595724582672,-0.7295202016830444,0.011716549284756184,0.00916537269949913,0.007351875305175781,0,0,0
566711108,d4-ca-6e-f1-69-20,0.6318060159683228,-0.37286677956581116,-0.4067048728466034,-0.5444104075431824,0.00823242962360382,0.005665829870849848,0.08057785034179688,0,0,0
566711108,d4-ca-6e-f1-65-50,0.8094983100891113,0.12365595996379852,-0.5404012203216553,0.19336041808128357,-0.0005221262690611184,0.019931543618440628,0.01906585693359375,0,0,0
566711108,d4-ca-6e-f1-6a-7d,0.4117361307144165,0.47601571679115295,-0.2871675491333008,0.7220922708511353,-0.011869208887219429,0.007534621749073267,0.15343570709228516,0,0,0
566711108,d4-ca-6e-f1-69-80,0.40096139907836914,-0.4931923747062683,-0.2525683343410492,-0.7295207977294922,0.01625855639576912,-0.023956788703799248,0.028122901916503906,0,0,0
566761109,d4-ca-6e-f1-74-d2,0.8137450218200684,-0.12093417346477509,-0.5440020561218262,-0.16509321331977844,0.0060889399610459805,-0.004705729894340038,-0.04444694519042969,0,0,0
566811110,d4-ca-6e-f1-69-80,0.4009822905063629,-0.49318695068359375,-0.2525773048400879,-0.7295098900794983,-0.009766175411641598,0.011431570164859295,0.024890899658203125,0,0,0
566811110,d4-ca-6e-f1-69-20,0.631814181804657,-0.3728797137737274,-0.40669238567352295,-0.5444012880325317,-0.010960851795971394,-0.025470418855547905,0.085693359375,0,0,0
566811110,d4-ca-6e-f1-65-50,0.809499979019165,0.1236453428864479,-0.5404084920883179,0.19334012269973755,0.009475608356297016,-0.012477275915443897,0.020305633544921875,0,0,0
566811110,d4-ca-6e-f1-6a-7d,0.41172364354133606,0.47601744532585144,-0.28716883063316345,0.7220978140830994,0.016705581918358803,-0.004647952038794756,0.1614236831665039,0,0,0
566911112,d4-ca-6e-f1-69-80,0.40098637342453003,-0.49317628145217896,-0.2525828182697296,-0.7295129299163818,0.021149130538105965,-0.0015733076725155115,0.02041912078857422,0,0,0
566911112,d4-ca-6e-f1-69-20,0.6318256855010986,-0.3728594183921814,-0.4066862165927887,-0.5444066524505615,0.018232399597764015,-0.005523899104446173,0.08182048797607422,0,0,0
566911112,d4-ca-6e-f1-65-50,0.8095059990882874,0.12362111359834671,-0.540411114692688,0.19332320988178253,-0.009546237997710705,0.015032811090350151,0.028713226318359375,0,0,0
566911112,d4-ca-6e-f1-6a-7d,0.411738783121109,0.47600793838500977,-0.287198007106781,0.7220837473869324,-0.013257782906293869,-0.011833222582936287,0.15521526336669922,0,0,0
567011114,d4-ca-6e-f1-69-20,0.6318249106407166,-0.37285497784614563,-0.4067114293575287,-0.5443917512893677,-0.01793333888053894,-0.013854674063622952,0.0823373794555664,0,0,0
567011114,d4-ca-6e-f1-65-50,0.809497594833374,0.1236300989985466,-0.5404157042503357,0.19333945214748383,-0.0025788925122469664,-0.007030600216239691,0.037837982177734375,0,0,0
567011114,d4-ca-6e-f1-6a-7d,0.41172489523887634,0.47602710127830505,-0.287202388048172,0.7220773100852966,0.016834326088428497,0.009097200818359852,0.1475362777709961,0,0,0
567011114,d4-ca-6e-f1-69-80,0.40096479654312134,-0.4932143986225128,-0.252565860748291,-0.7295048832893372,-0.03357008099555969,0.013106352649629116,0.025533676147460938,0,0,0
567011114,d4-ca-6e-f1-74-d2,0.8137500286102295,-0.12090668082237244,-0.5440074801445007,-0.16507098078727722,-0.008810880593955517,-0.01691546104848385,-0.025613784790039062,0,0,0
567111116,d4-ca-6e-f1-6a-7d,0.4117329716682434,0.47601205110549927,-0.28720787167549133,0.7220804691314697,-0.01763036660850048,-0.01491345465183258,0.1470775604248047,0,0,0
567111116,d4-ca-6e-f1-69-80,0.4009668231010437,-0.4932023286819458,-0.2525940537452698,-0.729502260684967,0.01727665774524212,-0.01699167862534523,0.018976211547851562,0,0,0
567111116,d4-ca-6e-f1-69-20,0.6318296194076538,-0.3728465139865875,-0.4067094922065735,-0.5443935394287109,0.0120276790112257,0.017326947301626205,0.07337379455566406,0,0,0
567111116,d4-ca-6e-f1-65-50,0.8094853758811951,0.12362940609455109,-0.5404384732246399,0.19332757592201233,-0.020603423938155174,0.008739021606743336,0.008131027221679688,0,0,0
567211118,d4-ca-6e-f1-69-20,0.6318221092224121,-0.3728666305541992,-0.40669959783554077,-0.5443958640098572,-0.014559634029865265,-0.0028258743695914745,0.08739948272705078,0,0,0
567211118,d4-ca-6e-f1-65-50,0.8094813227653503,0.12361493706703186,-0.5404496192932129,0.19332297146320343,-0.006980756763368845,-0.009629497304558754,0.030263900756835938,0,0,0
567211118,d4-ca-6e-f1-6a-7d,0.41171568632125854,0.47601693868637085,-0.2872259020805359,0.7220799326896667,0.025148894637823105,-0.007898054085671902,0.1551980972290039,0,0,0
567211118,d4-ca-6e-f1-69-80,0.4009808599948883,-0.49322208762168884,-0.2525802552700043,-0.7294859886169434,0.0007620674441568553,0.02657032571732998,0.01601886749267578,0,0,0
567311120,d4-ca-6e-f1-69-20,0.631818950176239,-0.3728601932525635,-0.40669313073158264,-0.5444085597991943,0.02216622605919838,-0.0006095198332332075,0.09229660034179688,0,0,0
567311120,d4-ca-6e-f1-65-50,0.8094763159751892,0.12360236793756485,-0.5404590368270874,0.1933252364397049,-0.019885500892996788,0.001055986969731748,0.013064384460449219,0,0,0
567311120,d4-ca-6e-f1-69-80,0.4010222852230072,-0.4932212233543396,-0.2525945007801056,-0.729458749294281,0.013005995191633701,0.003417960135266185,0.023822784423828125,0,0,0
567261119,d4-ca-6e-f1-74-d2,0.8137568235397339,-0.12086722999811172,-0.5440176129341125,-0.16503290832042694,-0.000713453337084502,-0.0025620171800255775,-0.02569866180419922,0,0,0
567311120,d4-ca-6e-f1-6a-7d,0.4117031395435333,0.47602763772010803,-0.28723156452178955,0.7220777273178101,-0.017748605459928513,-0.013101658783853054,0.1566610336303711,0,0,0
567411122,d4-ca-6e-f1-6a-7d,0.41168662905693054,0.4760276973247528,-0.28722530603408813,0.7220896482467651,0.010615747421979904,-0.012452577240765095,0.16089630126953125,0,0,0
567411122,d4-ca-6e-f1-69-80,0.40103334188461304,-0.4932260811328888,-0.25260263681411743,-0.7294466495513916,0.01160233374685049,0.016981173306703568,0.014204025268554688,0,0,0
567411122,d4-ca-6e-f1-69-20,0.631826639175415,-0.37287378311157227,-0.4067060649394989,-0.544380784034729,0.0015507328789681196,-0.0006046025664545596,0.07102775573730469,0,0,0
567411122,d4-ca-6e-f1-65-50,0.8094751834869385,0.12355538457632065,-0.5404753088951111,0.19331413507461548,-0.01180595438927412,-0.014810527674853802,0.020429611206054688,0,0,0
567511124,d4-ca-6e-f1-74-d2,0.8137301206588745,-0.12088719010353088,-0.5440571308135986,-0.16502000391483307,0.00012069699732819572,0.010631617158651352,-0.05720996856689453,0,0,0
567511124,d4-ca-6e-f1-69-20,0.6318190693855286,-0.3728802502155304,-0.4067288637161255,-0.5443682074546814,0.0067972526885569096,-0.03563154116272926,0.07294750213623047,0,0,0
567511124,d4-ca-6e-f1-65-50,0.8094630837440491,0.12354740500450134,-0.5404922962188721,0.19332288205623627,0.0048010582104325294,-0.00033973969402723014,0.01387786865234375,0,0,0
567511124,d4-ca-6e-f1-6a-7d,0.4117065966129303,0.47602763772010803,-0.28724735975265503,0.7220696210861206,-0.022250603884458542,0.004607048816978931,0.15914249420166016,0,0,0
567511124,d4-ca-6e-f1-69-80,0.4010566174983978,-0.49323147535324097,-0.2526152431964874,-0.7294257879257202,-0.012880716472864151,-0.0034534987062215805,0.025838851928710938,0,0,0
567611126,d4-ca-6e-f1-69-20,0.6318120360374451,-0.3728771507740021,-0.4067242741584778,-0.5443817973136902,0.006244951859116554,0.00030330708250403404,0.0702047348022461,0,0,0
567611126,d4-ca-6e-f1-65-50,0.8094848990440369,0.12353544682264328,-0.540469229221344,0.19330324232578278,-0.025671804323792458,-0.018272407352924347,0.021704673767089844,0,0,0
567611126,d4-ca-6e-f1-6a-7d,0.41173693537712097,0.47598883509635925,-0.2872461676597595,0.7220783233642578,-0.005033958703279495,-0.005471373442560434,0.13626384735107422,0,0,0
567611126,d4-ca-6e-f1-69-80,0.4010361433029175,-0.4932105839252472,-0.25261783599853516,-0.7294502854347229,-0.001478091231547296,0.018498603254556656,0.016279220581054688,0,0,0
567711128,d4-ca-6e-f1-69-80,0.4010710120201111,-0.49322354793548584,-0.25264737010002136,-0.7294121384620667,-0.026003943756222725,-0.016850417479872704,0.020819664001464844,0,0,0
567711128,d4-ca-6e-f1-69-20,0.6317959427833557,-0.3728973865509033,-0.40674248337745667,-0.544373095035553,0.0033144736662507057,-0.02401244454085827,0.0904073715209961,0,0,0
567711128,d4-ca-6e-f1-65-50,0.8094859719276428,0.12352938950061798,-0.540473222732544,0.19329218566417694,0.024838995188474655,-0.0025862683542072773,0.023756027221679688,0,0,0
567711128,d4-ca-6e-f1-6a-7d,0.411717027425766,0.475987046957016,-0.2872781455516815,0.7220780253410339,-0.012362166307866573,0.025680745020508766,0.14893245697021484,0,0,0
567761129,d4-ca-6e-f1-74-d2,0.8137189745903015,-0.12088323384523392,-0.5440798401832581,-0.1650027185678482,-0.005358499474823475,0.0033714694436639547,-0.027111053466796875,0,0,0
567811130,d4-ca-6e-f1-69-80,0.40109479427337646,-0.49320533871650696,-0.2526520788669586,-0.7294096946716309,0.007615644950419664,0.011025000363588333,0.013176918029785156,0,0,0
567811130,d4-ca-6e-f1-69-20,0.6317973136901855,-0.37288761138916016,-0.40674129128456116,-0.5443790555000305,-0.00679032364860177,0.016936246305704117,0.0913400650024414,0,0,0
567811130,d4-ca-6e-f1-65-50,0.8094806671142578,0.12353769689798355,-0.5404797196388245,0.19329014420509338,-0.013881495222449303,-0.009157884865999222,0.018988609313964844,0,0,0
567811130,d4-ca-6e-f1-6a-7d,0.41175034642219543,0.4759764075279236,-0.2872624695301056,0.7220723628997803,0.01950664632022381,-0.019793860614299774,0.15790462493896484,0,0,0
567911132,d4-ca-6e-f1-69-20,0.6317926645278931,-0.3728896975517273,-0.40673530101776123,-0.5443874597549438,0.010684813372790813,-0.007362069562077522,0.07323169708251953,0,0,0
567911132,d4-ca-6e-f1-65-50,0.8094727993011475,0.12353450059890747,-0.5404850244522095,0.19331026077270508,-0.004796587862074375,0.01590171828866005,0.028458595275878906,0,0,0
567911132,d4-ca-6e-f1-6a-7d,0.41173794865608215,0.4760092496871948,-0.2872675359249115,0.7220556139945984,-0.002096104435622692,-0.0005366546101868153,0.1652088165283203,0,0,0
567911132,d4-ca-6e-f1-69-80,0.40112242102622986,-0.493202805519104,-0.25264492630958557,-0.7293986082077026,0.0005743165384046733,-0.010217000730335712,0.020292282104492188,0,0,0
568011134,d4-ca-6e-f1-74-d2,0.8137223124504089,-0.12084884196519852,-0.5440759062767029,-0.16502436995506287,-0.01166648231446743,-0.0046746619045734406,-0.039664268493652344,0,0,0
568011134,d4-ca-6e-f1-6a-7d,0.41173750162124634,0.4759901463985443,-0.2872711718082428,0.7220670580863953,0.022736072540283203,-0.004817821551114321,0.15079975128173828,0,0,0
568011134,d4-ca-6e-f1-69-80,0.4011209011077881,-0.4931994080543518,-0.25260841846466064,-0.7294144034385681,-0.0041501885280013084,0.014332321472465992,0.016073226928710938,0,0,0
568011134,d4-ca-6e-f1-69-20,0.6318168640136719,-0.37285786867141724,-0.40674474835395813,-0.5443742275238037,-0.00450512720271945,0.00989469513297081,0.0768280029296875,0,0,0
568011134,d4-ca-6e-f1-65-50,0.8094642758369446,0.123564712703228,-0.5404821038246155,0.19333527982234955,-0.007254783529788256,-0.01086429413408041,0.029201507568359375,0,0,0
568111136,d4-ca-6e-f1-69-20,0.631809413433075,-0.3728792369365692,-0.40674614906311035,-0.5443671345710754,0.013929103501141071,-0.016195524483919144,0.0753335952758789,0,0,0
568111136,d4-ca-6e-f1-65-50,0.8094522356987,0.12357891350984573,-0.5405009984970093,0.19332392513751984,-0.004588273819535971,-0.007757799234241247,0.03177165985107422,0,0,0
568111136,d4-ca-6e-f1-69-80,0.4011055827140808,-0.4932141602039337,-0.2526230812072754,-0.7294077277183533,-0.0017268611118197441,-0.009320713579654694,0.038707733154296875,0,0,0
568111136,d4-ca-6e-f1-6a-7d,0.4117525517940521,0.4759818911552429,-0.28730544447898865,0.7220503091812134,-0.0038947132416069508,-0.011186152696609497,0.15204906463623047,0,0,0
568211138,d4-ca-6e-f1-69-20,0.631827712059021,-0.37287983298301697,-0.40674668550491333,-0.5443452000617981,-0.007577759679406881,0.0014825614634901285,0.07631969451904297,0,0,0
568211138,d4-ca-6e-f1-65-50,0.8094382286071777,0.12358493357896805,-0.5405285954475403,0.19330145418643951,-0.00005766634421888739,-0.014821367338299751,0.018273353576660156,0,0,0
568211138,d4-ca-6e-f1-69-80,0.40110141038894653,-0.49321186542510986,-0.2526363432407379,-0.7294071912765503,-0.012767059728503227,0.015055161900818348,0.01769542694091797,0,0,0
568211138,d4-ca-6e-f1-6a-7d,0.4117564558982849,0.47596415877342224,-0.28735417127609253,0.7220403552055359,0.014920607209205627,-0.021421927958726883,0.14850330352783203,0,0,0
568261139,d4-ca-6e-f1-74-d2,0.8137128353118896,-0.12084590643644333,-0.5440899133682251,-0.1650271862745285,-0.0120848985388875,0.003615880850702524,-0.038910865783691406,0,0,0
568311140,d4-ca-6e-f1-6a-7d,0.4117586612701416,0.4759783148765564,-0.28734326362609863,0.7220340967178345,0.001206969958730042,-0.01723351888358593,0.1539468765258789,0,0,0
568311140,d4-ca-6e-f1-69-20,0.6318450570106506,-0.372856467962265,-0.40672624111175537,-0.5443562269210815,0.006992826238274574,-0.005399179179221392,0.08434677124023438,0,0,0
568311140,d4-ca-6e-f1-65-50,0.8094235062599182,0.12360023707151413,-0.5405306220054626,0.19334733486175537,-0.015738440677523613,0.007461197674274445,0.017040252685546875,0,0,0
568311140,d4-ca-6e-f1-69-80,0.40111619234085083,-0.4932137727737427,-0.25264105200767517,-0.7293960452079773,0.02017517387866974,0.011547349393367767,0.014997482299804688,0,0,0
568411142,d4-ca-6e-f1-69-80,0.401104211807251,-0.4932118356227875,-0.2526496946811676,-0.7294009327888489,-0.015553037635982037,-0.0029445597901940346,0.01597881317138672,0,0,0
568411142,d4-ca-6e-f1-69-20,0.6318599581718445,-0.37287503480911255,-0.40670090913772583,-0.5443450212478638,-0.013942514546215534,0.0028716945089399815,0.08526325225830078,0,0,0
568411142,d4-ca-6e-f1-65-50,0.8094217777252197,0.1235949769616127,-0.5405277013778687,0.1933666318655014,0.003346435958519578,-0.01260870136320591,0.027645111083984375,0,0,0
568411142,d4-ca-6e-f1-6a-7d,0.411769300699234,0.4759867489337921,-0.2873794734477997,0.7220081090927124,0.028820542618632317,0.0009099212475121021,0.15180683135986328,0,0,0
568511144,d4-ca-6e-f1-69-20,0.6318615674972534,-0.37286171317100525,-0.40669071674346924,-0.5443600416183472,0.015082207508385181,0.0028205099515616894,0.08542537689208984,0,0,0
568511144,d4-ca-6e-f1-65-50,0.809425413608551,0.1235944852232933,-0.5405176281929016,0.19337959587574005,-0.014320028014481068,0.000058448636991670355,0.02394866943359375,0,0,0
568511144,d4-ca-6e-f1-6a-7d,0.4117802381515503,0.47599461674690247,-0.2873550355434418,0.7220063805580139,-0.0021030334755778313,-0.012991467490792274,0.15508270263671875,0,0,0
568511144,d4-ca-6e-f1-69-80,0.4010809361934662,-0.4932023882865906,-0.2526373267173767,-0.7294244170188904,0.01641993224620819,-0.01563204824924469,0.00484466552734375,0,0,0
568511144,d4-ca-6e-f1-74-d2,0.8137087225914001,-0.12079431116580963,-0.5441025495529175,-0.16504338383674622,0.0008489022147841752,0.013673069886863232,-0.04526233673095703,0,0,0
568611146,d4-ca-6e-f1-69-80,0.4009840190410614,-0.49317359924316406,-0.2525595426559448,-0.7295240759849548,-0.01313932053744793,0.0151508254930377,0.023972511291503906,0,0,0
568611146,d4-ca-6e-f1-69-20,0.6317662000656128,-0.3728393614292145,-0.406773179769516,-0.5444244146347046,-0.003971378318965435,0.003940086346119642,0.08481216430664062,0,0,0
568611146,d4-ca-6e-f1-65-50,0.809581995010376,0.12363529205322266,-0.5402866005897522,0.19334395229816437,-0.0275412667542696,-0.012266949750483036,0.011762619018554688,0,0,0
568611146,d4-ca-6e-f1-6a-7d,0.4118432104587555,0.47591879963874817,-0.287133127450943,0.7221086621284485,0.015001406893134117,-0.0046691857278347015,0.14877796173095703,0,0,0
568711148,d4-ca-6e-f1-69-20,0.631741464138031,-0.37284213304519653,-0.406787633895874,-0.5444403886795044,0.004454389680176973,-0.0006153311696834862,0.0823516845703125,0,0,0
568711148,d4-ca-6e-f1-65-50,0.8095768094062805,0.12366070598363876,-0.5402824878692627,0.19336055219173431,-0.01896507479250431,0.005215674638748169,0.007140159606933594,0,0,0
568711148,d4-ca-6e-f1-6a-7d,0.411847323179245,0.4759081304073334,-0.2871308922767639,0.7221143245697021,-0.012779129669070244,-0.009911011904478073,0.14750957489013672,0,0,0
568711148,d4-ca-6e-f1-69-80,0.40096741914749146,-0.49319231510162354,-0.25255295634269714,-0.7295228838920593,0.0005052510532550514,0.0033140266314148903,0.020644187927246094,0,0,0
568761149,d4-ca-6e-f1-74-d2,0.8137970566749573,-0.12079881876707077,-0.543988049030304,-0.1649821400642395,0.006992826238274574,-0.007867208682000637,-0.024712562561035156,0,0,0
568811150,d4-ca-6e-f1-69-20,0.6317408084869385,-0.37285181879997253,-0.4068029224872589,-0.5444231033325195,-0.0062661855481565,0.007374363020062447,0.08622932434082031,0,0,0
568811150,d4-ca-6e-f1-65-50,0.8095688223838806,0.12367100268602371,-0.5402916669845581,0.19336184859275818,0.002443890552967787,-0.009416041895747185,0.029754638671875,0,0,0
568811150,d4-ca-6e-f1-6a-7d,0.41185250878334045,0.4759177267551422,-0.28715139627456665,0.7220970392227173,0.016820915043354034,-0.011844398453831673,0.14864158630371094,0,0,0
568811150,d4-ca-6e-f1-69-80,0.40096405148506165,-0.49318841099739075,-0.25253599882125854,-0.7295332551002502,0.0007774897967465222,-0.014953910373151302,0.03455162048339844,0,0,0
568911152,d4-ca-6e-f1-69-80,0.40094736218452454,-0.4931987226009369,-0.2524922788143158,-0.7295506000518799,-0.0026913194451481104,-0.028472868725657463,0.015542984008789062,0,0,0
568911152,d4-ca-6e-f1-69-20,0.6317363977432251,-0.37285351753234863,-0.4067864418029785,-0.5444393157958984,0.01477308850735426,-0.0228807982057333,0.0930032730102539,0,0,0
568911152,d4-ca-6e-f1-65-50,0.8095799088478088,0.12366180121898651,-0.5402864813804626,0.19333602488040924,0.01670893467962742,0.010387093760073185,0.0179595947265625,0,0,0
568911152,d4-ca-6e-f1-6a-7d,0.4118695855140686,0.47590190172195435,-0.2871568202972412,0.7220954298973083,-0.01250789687037468,0.010231752879917622,0.14722442626953125,0,0,0
569011154,d4-ca-6e-f1-74-d2,0.8138023614883423,-0.1207863986492157,-0.5439819693565369,-0.16498498618602753,-0.015385737642645836,-0.002436402952298522,-0.04695320129394531,0,0,0
569011154,d4-ca-6e-f1-6a-7d,0.41186800599098206,0.47587040066719055,-0.28717362880706787,0.7221105694770813,0.00867245253175497,0.0011364951496943831,0.15491580963134766,0,0,0
569011154,d4-ca-6e-f1-69-80,0.4009503126144409,-0.4932054281234741,-0.25246161222457886,-0.729555070400238,0.0021176734007894993,0.005708073731511831,0.015123367309570312,0,0,0
569011154,d4-ca-6e-f1-69-20,0.6317474246025085,-0.37285205721855164,-0.4067642390727997,-0.5444441437721252,-0.014398927800357342,0.010135418735444546,0.07234001159667969,0,0,0
569011154,d4-ca-6e-f1-65-50,0.8095847964286804,0.12366344034671783,-0.5402775406837463,0.19333982467651367,0.010652180761098862,-0.00029336076113395393,0.029915809631347656,0,0,0
569111156,d4-ca-6e-f1-69-20,0.6317381262779236,-0.37287190556526184,-0.40676307678222656,-0.5444422364234924,0.01075857225805521,-0.03303566202521324,0.07262039184570312,0,0,0
569111156,d4-ca-6e-f1-65-50,0.8095778822898865,0.12366504222154617,-0.5402810573577881,0.1933574676513672,0.041033849120140076,0.008126931264996529,0.021106719970703125,0,0,0
569111156,d4-ca-6e-f1-69-80,0.4009610414505005,-0.49319642782211304,-0.2524867653846741,-0.7295464873313904,0.0041627055034041405,-0.023822234943509102,0.025180816650390625,0,0,0
569111156,d4-ca-6e-f1-6a-7d,0.41185262799263,0.47587233781814575,-0.2871764898300171,0.7221168279647827,-0.01745222695171833,0.021166229620575905,0.15636444091796875,0,0,0
569211158,d4-ca-6e-f1-6a-7d,0.4118480384349823,0.47585785388946533,-0.287185400724411,0.7221254110336304,0.019107339903712273,-0.025295855477452278,0.15454387664794922,0,0,0
569211158,d4-ca-6e-f1-69-80,0.40097805857658386,-0.4931631088256836,-0.252486914396286,-0.729559600353241,0.021542737260460854,0.03326297551393509,0.02456188201904297,0,0,0
569211158,d4-ca-6e-f1-69-20,0.6317441463470459,-0.3728521764278412,-0.4067447781562805,-0.5444625020027161,-0.008429120294749737,0.02059515379369259,0.0859689712524414,0,0,0
569211158,d4-ca-6e-f1-65-50,0.8095843195915222,0.12367041409015656,-0.5402641892433167,0.1933739334344864,-0.03264138475060463,-0.007231202907860279,0.013289451599121094,0,0,0
569261159,d4-ca-6e-f1-74-d2,0.8137957453727722,-0.12076034396886826,-0.5439813137054443,-0.1650393009185791,-0.0017594939563423395,0.0009362957789562643,-0.02909374237060547,0,0,0
569311160,d4-ca-6e-f1-65-50,0.8095670938491821,0.12366130948066711,-0.5402969121932983,0.19336062669754028,0.0053812977857887745,0.018904725089669228,0.009917259216308594,0,0,0
569311160,d4-ca-6e-f1-6a-7d,0.411849707365036,0.47584375739097595,-0.2872244417667389,0.7221181988716125,-0.015409654006361961,0.016000399366021156,0.15546131134033203,0,0,0
569311160,d4-ca-6e-f1-69-80,0.4009653925895691,-0.49321117997169495,-0.2524857223033905,-0.7295345067977905,-0.01912119798362255,-0.013480513356626034,0.026458740234375,0,0,0
569311160,d4-ca-6e-f1-69-20,0.6317304372787476,-0.37286630272865295,-0.40677130222320557,-0.5444487929344177,0.009187947027385235,-0.013855121098458767,0.06935882568359375,0,0,0
569411162,d4-ca-6e-f1-69-20,0.6317400336265564,-0.3728300631046295,-0.4067521095275879,-0.5444767475128174,-0.006837931927293539,0.02081151492893696,0.0820608139038086,0,0,0
569411162,d4-ca-6e-f1-65-50,0.8095784783363342,0.12366140633821487,-0.5402756333351135,0.19337233901023865,-0.01593736745417118,-0.009953702799975872,0.02548980712890625,0,0,0
569411162,d4-ca-6e-f1-6a-7d,0.41184723377227783,0.47583112120628357,-0.2872132360935211,0.7221324443817139,0.017989104613661766,-0.02328692004084587,0.1547698974609375,0,0,0
569411162,d4-ca-6e-f1-69-80,0.4009690582752228,-0.4932093024253845,-0.2524927854537964,-0.7295313477516174,0.009898383170366287,0.03178779035806656,0.014712333679199219,0,0,0
569511164,d4-ca-6e-f1-6a-7d,0.4118436574935913,0.4758400619029999,-0.2872326076030731,0.7221208214759827,-0.017973681911826134,0.021437350660562515,0.16723155975341797,0,0,0
569511164,d4-ca-6e-f1-69-80,0.400978684425354,-0.49323955178260803,-0.25247856974601746,-0.729510486125946,-0.008551270700991154,-0.01634572632610798,0.02537059783935547,0,0,0
569511164,d4-ca-6e-f1-74-d2,0.813789963722229,-0.1207490861415863,-0.5439831614494324,-0.16506920754909515,0.024344583973288536,-0.007854916155338287,-0.031194686889648438,0,0,0
569511164,d4-ca-6e-f1-69-20,0.6317248940467834,-0.37283170223236084,-0.40678396821022034,-0.5444692969322205,0.005090954713523388,-0.026013555005192757,0.09256935119628906,0,0,0
569511164,d4-ca-6e-f1-65-50,0.8095607757568359,0.12369262427091599,-0.5402972102165222,0.1933659464120865,0.007051386870443821,0.009621227160096169,0.017928123474121094,0,0,0
569611166,d4-ca-6e-f1-69-80,0.40096351504325867,-0.4932282269001007,-0.2524684965610504,-0.7295299172401428,-0.002919414546340704,0.016309963539242744,0.026674270629882812,0,0,0
569611166,d4-ca-6e-f1-69-20,0.6317198872566223,-0.3728221356868744,-0.40678051114082336,-0.544484555721283,-0.011600322090089321,0.013117528520524502,0.07890701293945312,0,0,0
569611166,d4-ca-6e-f1-65-50,0.8095623254776001,0.1236969456076622,-0.5402795672416687,0.19340640306472778,-0.0032418319024145603,-0.016150152310729027,0.02158832550048828,0,0,0
569611166,d4-ca-6e-f1-6a-7d,0.41184085607528687,0.4758390784263611,-0.2872067987918854,0.7221333980560303,0.011478396132588387,-0.007431358564645052,0.15248870849609375,0,0,0
569711168,d4-ca-6e-f1-69-20,0.6317099332809448,-0.3728490471839905,-0.40678778290748596,-0.5444722175598145,0.01626235619187355,-0.014071481302380562,0.08635139465332031,0,0,0
569711168,d4-ca-6e-f1-65-50,0.8095731139183044,0.12367641925811768,-0.5402693152427673,0.1934027075767517,0.0010835907887667418,0.02008543349802494,0.02267742156982422,0,0,0
569711168,d4-ca-6e-f1-6a-7d,0.4118255376815796,0.4758612811565399,-0.28719478845596313,0.7221323251724243,-0.017953231930732727,0.0072695352137088776,0.14566326141357422,0,0,0
569711168,d4-ca-6e-f1-69-80,0.4009685814380646,-0.4932275712490082,-0.2524891197681427,-0.7295205593109131,-0.006644593086093664,-0.001940539455972612,0.02734661102294922,0,0,0
569761169,d4-ca-6e-f1-74-d2,0.8137898445129395,-0.12084069848060608,-0.5439611673355103,-0.16507534682750702,-0.00912826880812645,-0.003602470038458705,-0.03220558166503906,0,0,0
569811170,d4-ca-6e-f1-69-80,0.4009585678577423,-0.4932488799095154,-0.25245827436447144,-0.7295222878456116,-0.009843398816883564,0.015012471005320549,0.023560523986816406,0,0,0
569811170,d4-ca-6e-f1-69-20,0.6317020654678345,-0.37285491824150085,-0.4068014621734619,-0.544467031955719,-0.02634413167834282,0.0027243993245065212,0.09252738952636719,0,0,0
569811170,d4-ca-6e-f1-65-50,0.8095750212669373,0.12368933111429214,-0.5402631163597107,0.19340388476848602,0.0021957913413643837,-0.024099726229906082,0.011294364929199219,0,0,0
569811170,d4-ca-6e-f1-6a-7d,0.4118290841579437,0.47585639357566833,-0.28721049427986145,0.7221271991729736,0.020408520475029945,-0.0019150590524077415,0.14391136169433594,0,0,0
569911172,d4-ca-6e-f1-69-20,0.6317260265350342,-0.3728528618812561,-0.40681028366088867,-0.5444338321685791,0.01562176737934351,-0.0003600793716032058,0.07190322875976562,0,0,0
569911172,d4-ca-6e-f1-65-50,0.8095862865447998,0.12369026243686676,-0.5402492880821228,0.19339454174041748,0.007087595760822296,0.0077538881450891495,0.022027969360351562,0,0,0
569911172,d4-ca-6e-f1-6a-7d,0.41182854771614075,0.47585394978523254,-0.2872183918952942,0.7221259474754333,-0.009018301032483578,-0.02075764909386635,0.16521167755126953,0,0,0
569911172,d4-ca-6e-f1-69-80,0.4009630084037781,-0.4932466447353363,-0.2524549067020416,-0.7295225262641907,0.012602219358086586,-0.001987030263990164,0.029486656188964844,0,0,0
570011174,d4-ca-6e-f1-6a-7d,0.41186028718948364,0.4758455753326416,-0.2872774600982666,0.7220898866653442,0.023820335045456886,-0.0005592294037342072,0.16721153259277344,0,0,0
570011174,d4-ca-6e-f1-74-d2,0.8137627840042114,-0.12089917808771133,-0.5439617037773132,-0.16516396403312683,-0.004349562339484692,-0.007257353980094194,-0.036543846130371094,0,0,0
570011174,d4-ca-6e-f1-69-20,0.6317323446273804,-0.37286868691444397,-0.40679052472114563,-0.5444304943084717,-0.017246035858988762,-0.004774236585944891,0.07903289794921875,0,0,0
570011174,d4-ca-6e-f1-65-50,0.8095906972885132,0.12367105484008789,-0.5402534604072571,0.1933768391609192,0.014221235178411007,-0.017148807644844055,0.013959884643554688,0,0,0
570011174,d4-ca-6e-f1-69-80,0.400943398475647,-0.49327608942985535,-0.2524496614933014,-0.7295151352882385,-0.014821255579590797,0.003863868536427617,0.012788772583007812,0,0,0
570111176,d4-ca-6e-f1-69-80,0.4009537398815155,-0.4932597577571869,-0.2524842917919159,-0.7295085787773132,0.023532673716545105,-0.012524548918008804,0.010053634643554688,0,0,0
570111176,d4-ca-6e-f1-69-20,0.6317302584648132,-0.372841477394104,-0.40679001808166504,-0.5444520711898804,0.027883240953087807,0.002273350255563855,0.09179115295410156,0,0,0
570111176,d4-ca-6e-f1-65-50,0.8095871806144714,0.12365490943193436,-0.5402608513832092,0.1933814436197281,-0.011843057349324226,0.01921239122748375,0.022568702697753906,0,0,0
570111176,d4-ca-6e-f1-6a-7d,0.4118620455265045,0.47585076093673706,-0.2872844338417053,0.7220826745033264,-0.02581149898469448,-0.015327400527894497,0.15042972564697266,0,0,0
570211178,d4-ca-6e-f1-69-80,0.400957316160202,-0.49328354001045227,-0.25247064232826233,-0.7294951677322388,-0.008968904614448547,0.0011135415406897664,0.03589344024658203,0,0,0
570211178,d4-ca-6e-f1-69-20,0.6317223906517029,-0.3728809356689453,-0.40677523612976074,-0.5444451570510864,-0.007216115947812796,0.00041685166070237756,0.08283424377441406,0,0,0
570211178,d4-ca-6e-f1-65-50,0.8095829486846924,0.12365477532148361,-0.5402686595916748,0.19337747991085052,-0.0020232393871992826,-0.01497413869947195,0.015279769897460938,0,0,0
570211178,d4-ca-6e-f1-6a-7d,0.4118519127368927,0.47585102915763855,-0.28731146454811096,0.7220775485038757,0.013205704279243946,0.00859072059392929,0.15717315673828125,0,0,0
570261179,d4-ca-6e-f1-74-d2,0.8137539625167847,-0.12094102054834366,-0.5439660549163818,-0.16516302525997162,0.0015131827676668763,-0.023832404986023903,-0.03185462951660156,0,0,0
570311180,d4-ca-6e-f1-69-20,0.6317390203475952,-0.3728397786617279,-0.40677881240844727,-0.5444514751434326,0.008849771693348885,0.004942094907164574,0.0907449722290039,0,0,0
570311180,d4-ca-6e-f1-65-50,0.8096112012863159,0.12363790720701218,-0.5402315258979797,0.1933736503124237,-0.0002802852541208267,0.013720342889428139,0.03731536865234375,0,0,0
570311180,d4-ca-6e-f1-6a-7d,0.4118984341621399,0.47584304213523865,-0.28730952739715576,0.722057044506073,-0.002726187463849783,-0.0009631173452362418,0.15232372283935547,0,0,0
570311180,d4-ca-6e-f1-69-80,0.4009578824043274,-0.49327635765075684,-0.2524845600128174,-0.7294948697090149,0.004910691175609827,-0.025598492473363876,0.038707733154296875,0,0,0
570411182,d4-ca-6e-f1-6a-7d,0.41192755103111267,0.4758017957210541,-0.28728947043418884,0.7220757007598877,0.007194561883807182,-0.014232898131012917,0.14106369018554688,0,0,0
570411182,d4-ca-6e-f1-69-80,0.40096092224121094,-0.4932495057582855,-0.25248798727989197,-0.7295102477073669,-0.0034405349288135767,0.013356687501072884,0.01851940155029297,0,0,0
570411182,d4-ca-6e-f1-65-50,0.8096211552619934,0.12367215752601624,-0.5402065515518188,0.1933794766664505,-0.018293194472789764,-0.01014190074056387,0.022459030151367188,0,0,0
570411182,d4-ca-6e-f1-69-20,0.6317492723464966,-0.372822105884552,-0.4067706763744354,-0.5444576144218445,-0.003115994157269597,0.01050890889018774,0.07425689697265625,0,0,0
570511184,d4-ca-6e-f1-74-d2,0.8138033747673035,-0.12091387808322906,-0.5438850522041321,-0.16520565748214722,0.019081300124526024,-0.03601408377289772,-0.02227783203125,0,0,0
570511184,d4-ca-6e-f1-69-20,0.6317611932754517,-0.37282711267471313,-0.4067704975605011,-0.5444405674934387,-0.016528112813830376,-0.044597093015909195,0.08820343017578125,0,0,0
570511184,d4-ca-6e-f1-65-50,0.8096136450767517,0.12366314977407455,-0.5402119755744934,0.19340170919895172,0.026799650862812996,-0.006581897847354412,0.03033924102783203,0,0,0
570511184,d4-ca-6e-f1-6a-7d,0.411911278963089,0.47581812739372253,-0.28731876611709595,0.7220624089241028,0.01098365057259798,0.02362464927136898,0.15600872039794922,0,0,0
570511184,d4-ca-6e-f1-69-80,0.4009469449520111,-0.4932529330253601,-0.25250253081321716,-0.7295106053352356,-0.04876941069960594,-0.010239575989544392,0.019979476928710938,0,0,0
570611186,d4-ca-6e-f1-65-50,0.8096049427986145,0.12360842525959015,-0.5402519702911377,0.19336123764514923,-0.034812141209840775,0.0018539282027631998,0.01811695098876953,0,0,0
570611186,d4-ca-6e-f1-6a-7d,0.41194531321525574,0.47583118081092834,-0.28717106580734253,0.7220932245254517,0.0007948120473884046,-0.025299878790974617,0.1491718292236328,0,0,0
570611186,d4-ca-6e-f1-69-80,0.4009702801704407,-0.4931716322898865,-0.2525283992290497,-0.7295438051223755,0.018570350483059883,-0.003924217075109482,0.03288555145263672,0,0,0
570611186,d4-ca-6e-f1-69-20,0.6317703127861023,-0.372778981924057,-0.4067428708076477,-0.5444836616516113,0.01884974166750908,0.01565149426460266,0.083343505859375,0,0,0
570711188,d4-ca-6e-f1-6a-7d,0.411959171295166,0.47580206394195557,-0.28716665506362915,0.7221062183380127,0.004075758624821901,0.004093416500836611,0.1542949676513672,0,0,0
570711188,d4-ca-6e-f1-69-80,0.40095001459121704,-0.49318429827690125,-0.25252479314804077,-0.7295476198196411,0.004860512912273407,0.009139444679021835,0.028527259826660156,0,0,0
570711188,d4-ca-6e-f1-69-20,0.6317653059959412,-0.37279489636421204,-0.40672847628593445,-0.5444892048835754,-0.0025096035096794367,-0.011974706314504147,0.0793447494506836,0,0,0
570711188,d4-ca-6e-f1-65-50,0.8096028566360474,0.12361866980791092,-0.5402588248252869,0.1933443397283554,-0.005301280412822962,-0.013186481781303883,0.021048545837402344,0,0,0
570761189,d4-ca-6e-f1-74-d2,0.8138341903686523,-0.12089444696903229,-0.5438439249992371,-0.16520360112190247,0.029581045731902122,-0.014154181815683842,-0.025560379028320312,0,0,0
570811190,d4-ca-6e-f1-69-80,0.40095481276512146,-0.4931824207305908,-0.25253063440322876,-0.7295442223548889,0.01747916080057621,-0.009724602103233337,0.007657051086425781,0,0,0
570811190,d4-ca-6e-f1-69-20,0.6317590475082397,-0.372803658246994,-0.40669146180152893,-0.5445183515548706,-0.0008218571310862899,0.015520292334258556,0.08344078063964844,0,0,0
570811190,d4-ca-6e-f1-65-50,0.8096120357513428,0.12363579124212265,-0.540240466594696,0.19334657490253448,-0.030099594965577126,0.0038349234964698553,0.021968841552734375,0,0,0
570811190,d4-ca-6e-f1-6a-7d,0.4119775593280792,0.4757874011993408,-0.28715264797210693,0.7221110463142395,0.003241943661123514,-0.01737053319811821,0.14918231964111328,0,0,0
570911192,d4-ca-6e-f1-69-20,0.6317558288574219,-0.37279680371284485,-0.4066820740699768,-0.5445336699485779,0.004596990998834372,-0.005937174428254366,0.09343433380126953,0,0,0
570911192,d4-ca-6e-f1-65-50,0.8096063733100891,0.12362728267908096,-0.5402615666389465,0.19331690669059753,-0.010039755143225193,-0.004780383314937353,0.013594627380371094,0,0,0
570911192,d4-ca-6e-f1-6a-7d,0.4119981527328491,0.4757729768753052,-0.28716322779655457,0.7221044898033142,0.011398937553167343,-0.010460183024406433,0.15726280212402344,0,0,0
570911192,d4-ca-6e-f1-69-80,0.40096113085746765,-0.4931972920894623,-0.2525296211242676,-0.7295310497283936,0.0035778835881501436,0.005234897136688232,0.02336406707763672,0,0,0
571011194,d4-ca-6e-f1-69-80,0.4009860157966614,-0.4931906759738922,-0.25253111124038696,-0.7295213937759399,-0.00770538579672575,-0.006253892555832863,0.03194713592529297,0,0,0
571011194,d4-ca-6e-f1-74-d2,0.8138374090194702,-0.12089426070451736,-0.5438430905342102,-0.165191188454628,0.011731301434338093,-0.012535947374999523,-0.051910400390625,0,0,0
571011194,d4-ca-6e-f1-69-20,0.6317729353904724,-0.37279295921325684,-0.40667054057121277,-0.5445250868797302,0.00009521652100374922,-0.032999005168676376,0.09008312225341797,0,0,0
571011194,d4-ca-6e-f1-65-50,0.8096069097518921,0.12365303188562393,-0.5402505993843079,0.1933286488056183,0.01569373905658722,0.0014079081593081355,0.02208709716796875,0,0,0
571011194,d4-ca-6e-f1-6a-7d,0.4119957387447357,0.47578170895576477,-0.28715190291404724,0.7221046090126038,-0.005196564365178347,0.01924200728535652,0.1461048126220703,0,0,0
571111196,d4-ca-6e-f1-69-20,0.6317828893661499,-0.3727835416793823,-0.40667635202407837,-0.5445154905319214,0.0042167953215539455,-0.01089268084615469,0.07203102111816406,0,0,0
571111196,d4-ca-6e-f1-65-50,0.8096143007278442,0.12362775206565857,-0.540236234664917,0.19335395097732544,-0.02011750638484955,0.018191272392868996,0.022603988647460938,0,0,0
571111196,d4-ca-6e-f1-6a-7d,0.41202110052108765,0.4757881164550781,-0.28713735938072205,0.722091794013977,-0.005121687427163124,-0.021416787058115005,0.1556406021118164,0,0,0
571111196,d4-ca-6e-f1-69-80,0.4010016620159149,-0.49316883087158203,-0.2525410056114197,-0.7295240163803101,0.0011297462042421103,0.01251806691288948,0.01851940155029297,0,0,0
571211198,d4-ca-6e-f1-69-20,0.6317909359931946,-0.37277984619140625,-0.4066564738750458,-0.5445237159729004,-0.014724809676408768,-0.03496010974049568,0.09292316436767578,0,0,0
571211198,d4-ca-6e-f1-65-50,0.8096144199371338,0.12360712140798569,-0.5402407050132751,0.19335415959358215,0.04198288545012474,-0.012149829417467117,0.028573989868164062,0,0,0
571211198,d4-ca-6e-f1-6a-7d,0.41204896569252014,0.47577956318855286,-0.28712576627731323,0.7220860719680786,0.001624380354769528,0.031128425151109695,0.15248584747314453,0,0,0
571211198,d4-ca-6e-f1-69-80,0.4009651243686676,-0.4931824505329132,-0.2525545060634613,-0.7295302748680115,-0.03617076575756073,-0.014022531919181347,0.025171279907226562,0,0,0
571261199,d4-ca-6e-f1-74-d2,0.8138565421104431,-0.12083186209201813,-0.5438271760940552,-0.16519464552402496,-0.01796284131705761,-0.008485669270157814,-0.030872344970703125,0,0,0
571311200,d4-ca-6e-f1-69-80,0.4009726643562317,-0.4931195378303528,-0.2525399625301361,-0.729573667049408,0.03682677820324898,0.020727697759866714,0.03041553497314453,0,0,0
571311200,d4-ca-6e-f1-69-20,0.6318008303642273,-0.37272733449935913,-0.40661320090293884,-0.5445804595947266,0.01196308434009552,0.025055577978491783,0.08497238159179688,0,0,0
571311200,d4-ca-6e-f1-65-50,0.809634804725647,0.12366297096014023,-0.5401854515075684,0.19338791072368622,-0.03128957748413086,0.003489037277176976,0.009816169738769531,0,0,0
571311200,d4-ca-6e-f1-6a-7d,0.41208958625793457,0.4757562577724457,-0.28707650303840637,0.7220978736877441,-0.005891913082450628,-0.033082377165555954,0.15608787536621094,0,0,0
571411202,d4-ca-6e-f1-69-20,0.6318106055259705,-0.3727168142795563,-0.406615674495697,-0.5445744395256042,-0.005111294332891703,-0.009973371401429176,0.079376220703125,0,0,0
571411202,d4-ca-6e-f1-65-50,0.8096329569816589,0.12365029007196426,-0.5401908159255981,0.19338789582252502,0.010459065437316895,0.009938615374267101,0.028820037841796875,0,0,0
571411202,d4-ca-6e-f1-6a-7d,0.4120980501174927,0.475749135017395,-0.28710559010505676,0.7220860719680786,0.004910802934318781,0.005248978268355131,0.16915225982666016,0,0,0
571411202,d4-ca-6e-f1-69-80,0.4009403884410858,-0.49315357208251953,-0.252524197101593,-0.7295739054679871,-0.0020963279530406,0.009157996624708176,0.0300140380859375,0,0,0
571511204,d4-ca-6e-f1-69-20,0.631812572479248,-0.37269943952560425,-0.4066111147403717,-0.5445874333381653,0.015393560752272606,-0.0006343297427520156,0.09054279327392578,0,0,0
571511204,d4-ca-6e-f1-65-50,0.809627890586853,0.12364823371171951,-0.5402054190635681,0.19337019324302673,-0.026914089918136597,0.003937292378395796,0.029069900512695312,0,0,0
571511204,d4-ca-6e-f1-6a-7d,0.41210612654685974,0.47573745250701904,-0.2870938181877136,0.7220938801765442,0.010758907534182072,-0.013106352649629116,0.15557289123535156,0,0,0
571511204,d4-ca-6e-f1-69-80,0.4009065628051758,-0.4931509494781494,-0.2525073289871216,-0.7296000123023987,0.010287518613040447,0.01771518960595131,0.013926506042480469,0,0,0
571511204,d4-ca-6e-f1-74-d2,0.8138725757598877,-0.12080050259828568,-0.5438299775123596,-0.16512943804264069,-0.018920818343758583,-0.004067488946020603,-0.03168678283691406,0,0,0
571611206,d4-ca-6e-f1-6a-7d,0.4121023118495941,0.47575265169143677,-0.287105917930603,0.7220813035964966,-0.006599667016416788,-0.009709849953651428,0.15251636505126953,0,0,0
571611206,d4-ca-6e-f1-69-80,0.4008861184120178,-0.49318259954452515,-0.25250244140625,-0.7295916080474854,0.010059870779514313,-0.0014888198347762227,0.02855968475341797,0,0,0
571611206,d4-ca-6e-f1-69-20,0.6318005323410034,-0.3727171719074249,-0.40661412477493286,-0.5445870161056519,0.00965933594852686,-0.002100127749145031,0.08202934265136719,0,0,0
571611206,d4-ca-6e-f1-65-50,0.809626042842865,0.12363811582326889,-0.5402123332023621,0.19336460530757904,-0.02611301839351654,-0.001463004038669169,0.02802562713623047,0,0,0
571711208,d4-ca-6e-f1-69-80,0.4008733034133911,-0.4932123124599457,-0.2524965703487396,-0.7295805215835571,-0.0026839436031877995,0.0035585497971624136,0.02208232879638672,0,0,0
571711208,d4-ca-6e-f1-69-20,0.6317970752716064,-0.37273144721984863,-0.40660911798477173,-0.5445849895477295,-0.005237802397459745,-0.017934903502464294,0.08331108093261719,0,0,0
571711208,d4-ca-6e-f1-65-50,0.8095967769622803,0.12365321069955826,-0.5402427315711975,0.1933925449848175,0.0069981906563043594,-0.019002512097358704,0.02030181884765625,0,0,0
571711208,d4-ca-6e-f1-6a-7d,0.41209325194358826,0.4757554531097412,-0.28713148832321167,0.7220744490623474,0.01175711676478386,0.012117531150579453,0.15027999877929688,0,0,0
571761209,d4-ca-6e-f1-74-d2,0.8138527870178223,-0.12074723094701767,-0.5438750386238098,-0.16511762142181396,0.007754558697342873,-0.001185177476145327,-0.039399147033691406,0,0,0
571811210,d4-ca-6e-f1-69-20,0.6318218111991882,-0.3727223575115204,-0.40659213066101074,-0.5445752143859863,0.009544449858367443,0.019131815060973167,0.07486629486083984,0,0,0
571811210,d4-ca-6e-f1-65-50,0.8096030354499817,0.12364120036363602,-0.5402354598045349,0.1933945268392563,-0.018079068511724472,0.00919968169182539,0.012836456298828125,0,0,0
571811210,d4-ca-6e-f1-6a-7d,0.41211867332458496,0.4757520854473114,-0.28712284564971924,0.7220655083656311,0.008371287025511265,-0.008891481906175613,0.14997577667236328,0,0,0
571811210,d4-ca-6e-f1-69-80,0.4008443355560303,-0.49319326877593994,-0.25250011682510376,-0.7296081781387329,0.0008876817300915718,-0.003282734891399741,0.019629478454589844,0,0,0
571911212,d4-ca-6e-f1-69-80,0.400802344083786,-0.4932295083999634,-0.2524968981742859,-0.7296078205108643,-0.008523889817297459,-0.008246063254773617,0.025972366333007812,0,0,0
571911212,d4-ca-6e-f1-69-20,0.6318156123161316,-0.37274327874183655,-0.4065955877304077,-0.5445654988288879,-0.005410131067037582,-0.027300765737891197,0.08620452880859375,0,0,0
571911212,d4-ca-6e-f1-65-50,0.8095837831497192,0.12359676510095596,-0.5402800440788269,0.19337952136993408,0.0038108958397060633,-0.008023779839277267,0.019517898559570312,0,0,0
571911212,d4-ca-6e-f1-6a-7d,0.4121273458003998,0.47576573491096497,-0.2871449589729309,0.7220428586006165,0.0070765321142971516,0.007556302472949028,0.1527843475341797,0,0,0
572011214,d4-ca-6e-f1-69-20,0.6318414807319641,-0.37272974848747253,-0.40655720233917236,-0.5445733666419983,-0.00020429084543138742,0.01643356680870056,0.09429550170898438,0,0,0
572011214,d4-ca-6e-f1-65-50,0.8095866441726685,0.12362567335367203,-0.5402625203132629,0.19339756667613983,-0.010442972183227539,-0.011479513719677925,0.021094322204589844,0,0,0
572011214,d4-ca-6e-f1-6a-7d,0.412150502204895,0.47573763132095337,-0.2871350944042206,0.7220520973205566,-0.003389126854017377,-0.0011028129374608397,0.14799118041992188,0,0,0
572011214,d4-ca-6e-f1-69-80,0.4007878303527832,-0.4932335317134857,-0.25247329473495483,-0.7296212911605835,0.014297900721430779,0.018984520807862282,0.02970123291015625,0,0,0
572011214,d4-ca-6e-f1-74-d2,0.8138617277145386,-0.1207110732793808,-0.5438764095306396,-0.16509531438350677,-0.0015726371202617884,-0.0008797469781711698,-0.040244102478027344,0,0,0
572111216,d4-ca-6e-f1-69-20,0.6318441033363342,-0.37272652983665466,-0.4065704047679901,-0.5445626378059387,0.0008500197436660528,-0.003975178115069866,0.08065986633300781,0,0,0
572111216,d4-ca-6e-f1-65-50,0.8095943927764893,0.12360319495201111,-0.5402629971504211,0.19337812066078186,-0.014119313098490238,0.0018429760821163654,0.015114784240722656,0,0,0
572111216,d4-ca-6e-f1-6a-7d,0.41213876008987427,0.4757290184497833,-0.28715288639068604,0.7220573425292969,0.007771992590278387,-0.019111251458525658,0.14329910278320312,0,0,0
572111216,d4-ca-6e-f1-69-80,0.4007866084575653,-0.4932405352592468,-0.2524811923503876,-0.7296145558357239,0.011340823955833912,0.0063535794615745544,0.023118019104003906,0,0,0
572211218,d4-ca-6e-f1-69-80,0.4007813036441803,-0.49324971437454224,-0.25245264172554016,-0.7296210527420044,-0.02174222283065319,-0.002852025208994746,0.026411056518554688,0,0,0
572211218,d4-ca-6e-f1-69-20,0.6318486332893372,-0.3727206885814667,-0.40657201409339905,-0.5445601940155029,-0.02285442315042019,-0.020969314500689507,0.08086204528808594,0,0,0
572211218,d4-ca-6e-f1-65-50,0.8095860481262207,0.12360101193189621,-0.5402764678001404,0.19337685406208038,0.01274470891803503,-0.003217245452105999,0.020856857299804688,0,0,0
572211218,d4-ca-6e-f1-6a-7d,0.41214412450790405,0.4757401645183563,-0.28719595074653625,0.7220298647880554,-0.0007640790427103639,0.019055597484111786,0.16131877899169922,0,0,0
572261219,d4-ca-6e-f1-74-d2,0.813873827457428,-0.12069939076900482,-0.5438534021377563,-0.16512034833431244,-0.010607031174004078,-0.006389676593244076,-0.03806877136230469,0,0,0
572311220,d4-ca-6e-f1-69-80,0.4007687270641327,-0.493230402469635,-0.25245699286460876,-0.7296395897865295,0.03551475703716278,0.013148372992873192,0.037322044372558594,0,0,0
572311220,d4-ca-6e-f1-69-20,0.6318597793579102,-0.37268778681755066,-0.40654945373535156,-0.5445866584777832,0.019705573096871376,0.004394935443997383,0.08426380157470703,0,0,0
572311220,d4-ca-6e-f1-65-50,0.8095932006835938,0.12361560016870499,-0.5402555465698242,0.19339613616466522,-0.013099647127091885,0.014685471542179585,0.014003753662109375,0,0,0
572311220,d4-ca-6e-f1-6a-7d,0.4121725857257843,0.47570937871932983,-0.2871580719947815,0.7220489978790283,-0.013562877662479877,-0.013474478386342525,0.13970470428466797,0,0,0
572411222,d4-ca-6e-f1-65-50,0.8095738291740417,0.12359856069087982,-0.5402804613113403,0.19341886043548584,0.014837684109807014,-0.002297601429745555,0.006384849548339844,0,0,0
572411222,d4-ca-6e-f1-6a-7d,0.4121759235858917,0.4757153391838074,-0.2871633768081665,0.7220410704612732,0.006694883573800325,0.012256779707968235,0.16086196899414062,0,0,0
572411222,d4-ca-6e-f1-69-80,0.400764137506485,-0.4932667911052704,-0.2524671256542206,-0.7296139597892761,-0.020393768325448036,-0.00486341817304492,0.012237548828125,0,0,0
572411222,d4-ca-6e-f1-69-20,0.6318491697311401,-0.3727245032787323,-0.4065592288970947,-0.5445665717124939,0.006499086041003466,-0.017724353820085526,0.0836477279663086,0,0,0
572511224,d4-ca-6e-f1-6a-7d,0.41222095489501953,0.47568050026893616,-0.28718939423561096,0.7220278978347778,-0.015065890736877918,-0.01618814840912819,0.14970970153808594,0,0,0
572511224,d4-ca-6e-f1-69-80,0.4007410407066345,-0.4932688772678375,-0.2524234652519226,-0.7296403050422668,0.014390882104635239,-0.020802127197384834,0.013154029846191406,0,0,0
572511224,d4-ca-6e-f1-74-d2,0.8138612508773804,-0.12072499096393585,-0.5438657999038696,-0.16512267291545868,0.004678572993725538,0.012265385128557682,-0.04713630676269531,0,0,0
572511224,d4-ca-6e-f1-69-20,0.631863534450531,-0.37270864844322205,-0.40655821561813354,-0.5445614457130432,0.019190821796655655,0.007374810054898262,0.09493446350097656,0,0,0
572511224,d4-ca-6e-f1-65-50,0.8095744252204895,0.12359730154275894,-0.5402778387069702,0.19342458248138428,-0.0053875562734901905,0.004534742794930935,0.01416778564453125,0,0,0
572611226,d4-ca-6e-f1-69-20,0.631721556186676,-0.3728199899196625,-0.4067835211753845,-0.5444817543029785,-0.011002648621797562,-0.006278702523559332,0.08702373504638672,0,0,0
572611226,d4-ca-6e-f1-6a-7d,0.4122198224067688,0.4756927192211151,-0.2872300446033478,0.7220043540000916,0.007141909562051296,0.003994176629930735,0.16014575958251953,0,0,0
572611226,d4-ca-6e-f1-69-80,0.4007115960121155,-0.49327173829078674,-0.252363383769989,-0.72967529296875,-0.01483522541821003,0.005136104300618172,0.010528564453125,0,0,0
572611226,d4-ca-6e-f1-65-50,0.8095957636833191,0.12360697984695435,-0.5402474999427795,0.19341376423835754,0.011870773509144783,-0.017681773751974106,0.025430679321289062,0,0,0
572711228,d4-ca-6e-f1-69-20,0.631710410118103,-0.3728037476539612,-0.40677598118782043,-0.5445113182067871,0.009198452346026897,-0.017019394785165787,0.07619380950927734,0,0,0
572711228,d4-ca-6e-f1-65-50,0.8096009492874146,0.12361174821853638,-0.5402451157569885,0.19339488446712494,0.00571701442822814,0.011716996319591999,0.013495445251464844,0,0,0
572711228,d4-ca-6e-f1-6a-7d,0.4122345745563507,0.4756692051887512,-0.28725874423980713,0.7219999432563782,0.005124704912304878,0.005505794659256935,0.166412353515625,0,0,0
572711228,d4-ca-6e-f1-69-80,0.40070080757141113,-0.4932800829410553,-0.2523457109928131,-0.7296817898750305,0.011427882127463818,-0.007946779951453209,0.02556610107421875,0,0,0
572761229,d4-ca-6e-f1-74-d2,0.8138998746871948,-0.12074524909257889,-0.5438418388366699,-0.16499660909175873,-0.011541315354406834,0.001592082786373794,-0.023957252502441406,0,0,0
572811230,d4-ca-6e-f1-69-80,0.4006967842578888,-0.4932602345943451,-0.25232934951782227,-0.7297029495239258,0.008705605752766132,0.013055391609668732,0.026741981506347656,0,0,0
572811230,d4-ca-6e-f1-69-20,0.6317111253738403,-0.3727898597717285,-0.40677711367607117,-0.5445193648338318,-0.00809541530907154,0.02623237483203411,0.0885610580444336,0,0,0
572811230,d4-ca-6e-f1-65-50,0.8096122145652771,0.12362022697925568,-0.5402340292930603,0.1933734267950058,-0.03079606220126152,-0.00878707692027092,0.03331184387207031,0,0,0
572811230,d4-ca-6e-f1-6a-7d,0.4122615456581116,0.4756436049938202,-0.28723543882369995,0.7220107316970825,0.011296233162283897,-0.012993925251066685,0.16541671752929688,0,0,0
572911232,d4-ca-6e-f1-6a-7d,0.4122883677482605,0.4756452143192291,-0.28726261854171753,0.7219835519790649,-0.0038653213996440172,0.013031252659857273,0.16273784637451172,0,0,0
572911232,d4-ca-6e-f1-69-80,0.4007149636745453,-0.49327054619789124,-0.25233423709869385,-0.7296842932701111,-0.011654188856482506,-0.010563893243670464,0.03167247772216797,0,0,0
572911232,d4-ca-6e-f1-69-20,0.6316956877708435,-0.3728235363960266,-0.4067695438861847,-0.54451984167099,0.008900509215891361,-0.022156840190291405,0.08540534973144531,0,0,0
572911232,d4-ca-6e-f1-65-50,0.8096097707748413,0.12362581491470337,-0.5402284264564514,0.19339561462402344,0.008611059747636318,0.0206433217972517,0.027398109436035156,0,0,0
573011234,d4-ca-6e-f1-69-20,0.6317142248153687,-0.3728257715702057,-0.406749427318573,-0.5445117950439453,-0.01436338946223259,0.036101143807172775,0.08333301544189453,0,0,0
573011234,d4-ca-6e-f1-65-50,0.8096173405647278,0.12365279346704483,-0.5402043461799622,0.1934146136045456,-0.006429126486182213,-0.017536602914333344,0.02493762969970703,0,0,0
573011234,d4-ca-6e-f1-69-80,0.4007124900817871,-0.4932588040828705,-0.2523422837257385,-0.7296907901763916,0.024279430508613586,0.010461300611495972,0.035366058349609375,0,0,0
573011234,d4-ca-6e-f1-74-d2,0.8139027953147888,-0.1207050085067749,-0.5438723564147949,-0.16491052508354187,-0.009557092562317848,-0.00601554149761796,-0.04314231872558594,0,0,0
573011234,d4-ca-6e-f1-6a-7d,0.4123021066188812,0.4756338894367218,-0.2872641086578369,0.7219825387001038,0.010206942446529865,0.0006788088358007371,0.14727783203125,0,0,0
573111236,d4-ca-6e-f1-69-80,0.4006922245025635,-0.4932807981967926,-0.2523339092731476,-0.7296900153160095,-0.0018010673811659217,-0.004923990461975336,0.017190933227539062,0,0,0
573111236,d4-ca-6e-f1-69-20,0.6316972970962524,-0.3728497326374054,-0.40675613284111023,-0.544510006904602,0.008925766684114933,-0.0023989644832909107,0.08423423767089844,0,0,0
573111236,d4-ca-6e-f1-65-50,0.8096058368682861,0.1236555278301239,-0.5402156114578247,0.19342945516109467,0.011015612632036209,0.017847174778580666,0.0141754150390625,0,0,0
573111236,d4-ca-6e-f1-6a-7d,0.4122790992259979,0.4756301939487457,-0.287274032831192,0.721994161605835,-0.01128036342561245,0.00013634290371555835,0.1560821533203125,0,0,0
573211238,d4-ca-6e-f1-69-20,0.6316996216773987,-0.37287062406539917,-0.40674325823783875,-0.5445026159286499,-0.0025572117883712053,0.014403621666133404,0.0815582275390625,0,0,0
573211238,d4-ca-6e-f1-65-50,0.8096098899841309,0.12363563477993011,-0.540219783782959,0.19341307878494263,-0.02075943537056446,-0.028699621558189392,0.027151107788085938,0,0,0
573211238,d4-ca-6e-f1-6a-7d,0.4122817814350128,0.4756219685077667,-0.2872992157936096,0.7219879627227783,0.001443471759557724,-0.013283471576869488,0.15121936798095703,0,0,0
573211238,d4-ca-6e-f1-69-80,0.40070465207099915,-0.4932818114757538,-0.2523306608200073,-0.7296836376190186,-0.004080676008015871,0.031027844175696373,0.02558422088623047,0,0,0
573261239,d4-ca-6e-f1-74-d2,0.8138998746871948,-0.12073028087615967,-0.5438778400421143,-0.16488876938819885,0.02044025994837284,0.0029577468521893024,-0.04051399230957031,0,0,0
573311240,d4-ca-6e-f1-65-50,0.8095983266830444,0.12363746762275696,-0.5402349829673767,0.19341863691806793,0.01342955231666565,-0.00025301665300503373,0.018507003784179688,0,0,0
573311240,d4-ca-6e-f1-6a-7d,0.41227853298187256,0.475612074136734,-0.2873283624649048,0.7219848036766052,-0.015622884966433048,-0.019827162846922874,0.1631336212158203,0,0,0
573311240,d4-ca-6e-f1-69-80,0.4006953239440918,-0.49329623579978943,-0.2523205578327179,-0.7296823263168335,-0.008207395672798157,-0.021597163751721382,0.022050857543945312,0,0,0
573311240,d4-ca-6e-f1-69-20,0.6317015886306763,-0.37290748953819275,-0.40673261880874634,-0.544482946395874,0.017888188362121582,-0.016594495624303818,0.08733654022216797,0,0,0
573411242,d4-ca-6e-f1-69-80,0.4006933271884918,-0.49328866600990295,-0.25231489539146423,-0.7296907305717468,0.008136989548802376,0.019917910918593407,0.029018402099609375,0,0,0
573411242,d4-ca-6e-f1-69-20,0.6316977739334106,-0.37291115522384644,-0.4067254066467285,-0.5444903373718262,0.00006884198955958709,0.013991240411996841,0.08717632293701172,0,0,0
573411242,d4-ca-6e-f1-65-50,0.8095893859863281,0.12362479418516159,-0.5402495265007019,0.19342322647571564,-0.005888225510716438,-0.015718549489974976,0.030057907104492188,0,0,0
573411242,d4-ca-6e-f1-6a-7d,0.4122748374938965,0.4756014943122864,-0.28736841678619385,0.721977949142456,0.02082347311079502,-0.009767740033566952,0.1666421890258789,0,0,0
573511244,d4-ca-6e-f1-69-80,0.40066033601760864,-0.4933222234249115,-0.2522987425327301,-0.7296916842460632,0.008883411064743996,0.005030382424592972,0.035241127014160156,0,0,0
573511244,d4-ca-6e-f1-74-d2,0.8138877153396606,-0.12075763940811157,-0.5438917279243469,-0.16488268971443176,-0.0006987014785408974,0.0035420097410678864,-0.027960777282714844,0,0,0
573511244,d4-ca-6e-f1-69-20,0.6316717863082886,-0.37292808294296265,-0.4067479372024536,-0.5444921255111694,0.01721899025142193,-0.0061184437945485115,0.09037494659423828,0,0,0
573511244,d4-ca-6e-f1-65-50,0.8095803260803223,0.12361615896224976,-0.5402653813362122,0.19342219829559326,-0.002094763331115246,0.027478346601128578,0.02215099334716797,0,0,0
573511244,d4-ca-6e-f1-6a-7d,0.4122539162635803,0.4756176173686981,-0.28737762570381165,0.721975564956665,-0.00884965993463993,-0.016270849853754044,0.1528034210205078,0,0,0
573611246,d4-ca-6e-f1-69-20,0.6316799521446228,-0.37292104959487915,-0.40674257278442383,-0.5444913506507874,-0.0030312826856970787,0.013958831317722797,0.08021831512451172,0,0,0
573611246,d4-ca-6e-f1-65-50,0.8095781803131104,0.12361310422420502,-0.5402778387069702,0.19339871406555176,-0.001241390942595899,-0.0169068556278944,0.0229034423828125,0,0,0
573611246,d4-ca-6e-f1-6a-7d,0.4122379720211029,0.47560781240463257,-0.2873615622520447,0.7219975590705872,0.012614848092198372,-0.00916984211653471,0.15638351440429688,0,0,0
573611246,d4-ca-6e-f1-69-80,0.400654137134552,-0.49331972002983093,-0.2522764503955841,-0.7297044992446899,0.003818942466750741,0.015955472365021706,0.033176422119140625,0,0,0
573711248,d4-ca-6e-f1-6a-7d,0.412238210439682,0.4755787253379822,-0.2873607873916626,0.7220168709754944,-0.003253454575315118,-0.008063453249633312,0.15188312530517578,0,0,0
573711248,d4-ca-6e-f1-69-20,0.631679356098175,-0.3728935718536377,-0.4067624509334564,-0.5444961190223694,0.008695771917700768,0.003139239503070712,0.08362293243408203,0,0,0
573711248,d4-ca-6e-f1-65-50,0.8095851540565491,0.1236354410648346,-0.5402740836143494,0.1933654397726059,-0.020075486972928047,0.010692412964999676,0.012411117553710938,0,0,0
573711248,d4-ca-6e-f1-69-80,0.4006325304508209,-0.4933071732521057,-0.2522667348384857,-0.7297281622886658,0.012885186821222305,-0.003008484374731779,0.02519512176513672,0,0,0
573761249,d4-ca-6e-f1-74-d2,0.8139148354530334,-0.12072089314460754,-0.5438650846481323,-0.16486304998397827,0.004585144575685263,0.0002960429119411856,-0.024045944213867188,0,0,0
573811250,d4-ca-6e-f1-69-20,0.6316913366317749,-0.3728804886341095,-0.40675145387649536,-0.5444993376731873,-0.011652177199721336,-0.004661586135625839,0.08195972442626953,0,0,0
573811250,d4-ca-6e-f1-65-50,0.8095765113830566,0.12365711480379105,-0.5402740240097046,0.1933879256248474,0.0030938663985580206,-0.012182573787868023,0.005988121032714844,0,0,0
573811250,d4-ca-6e-f1-6a-7d,0.4122375249862671,0.4755972921848297,-0.2873220145702362,0.7220205068588257,0.009277352131903172,0.00714347418397665,0.14217090606689453,0,0,0
573811250,d4-ca-6e-f1-69-80,0.4006122052669525,-0.49330443143844604,-0.2522561252117157,-0.7297448515892029,0.0012353560887277126,0.020346608012914658,0.01065826416015625,0,0,0
573911252,d4-ca-6e-f1-6a-7d,0.41224405169487,0.47558727860450745,-0.2873288691043854,0.72202068567276,0.0028058697935193777,-0.009417718276381493,0.16178035736083984,0,0,0
573911252,d4-ca-6e-f1-69-20,0.6316856145858765,-0.37289106845855713,-0.40675827860832214,-0.5444936752319336,0.007742041721940041,-0.008963093161582947,0.08443069458007812,0,0,0
573911252,d4-ca-6e-f1-65-50,0.8095818758010864,0.12368997186422348,-0.5402612090110779,0.1933802217245102,-0.02197623997926712,0.004883087705820799,0.029405593872070312,0,0,0
573911252,d4-ca-6e-f1-69-80,0.40058931708335876,-0.49331584572792053,-0.2522504925727844,-0.729751706123352,0.0056266034953296185,-0.010191967710852623,0.0035791397094726562,0,0,0
574011254,d4-ca-6e-f1-69-80,0.4005712568759918,-0.4933580756187439,-0.2522474527359009,-0.7297341227531433,-0.00875723734498024,0.019512010738253593,0.034089088439941406,0,0,0
574011254,d4-ca-6e-f1-74-d2,0.8139084577560425,-0.12069962173700333,-0.543898344039917,-0.164801225066185,-0.012165362946689129,0.0008532606880180538,-0.03516578674316406,0,0,0
574011254,d4-ca-6e-f1-69-20,0.6316835284233093,-0.3728763461112976,-0.40676411986351013,-0.544501781463623,-0.0013071037828922272,0.008417274802923203,0.08951377868652344,0,0,0
574011254,d4-ca-6e-f1-65-50,0.8095715641975403,0.12366174161434174,-0.5402794480323792,0.19339096546173096,0.010998178273439407,-0.00965933594852686,0.022939682006835938,0,0,0
574011254,d4-ca-6e-f1-6a-7d,0.41222429275512695,0.47559046745300293,-0.2873822748661041,0.7220085263252258,0.003007702063769102,-0.011720572598278522,0.1634044647216797,0,0,0
574111256,d4-ca-6e-f1-69-20,0.6316936016082764,-0.37288898229599,-0.4067651629447937,-0.5444806218147278,-0.001281623262912035,-0.022894879803061485,0.08249568939208984,0,0,0
574111256,d4-ca-6e-f1-65-50,0.8095758557319641,0.12365725636482239,-0.5402747392654419,0.19338873028755188,0.017857344821095467,0.010711858049035072,0.011097908020019531,0,0,0
574111256,d4-ca-6e-f1-6a-7d,0.41221991181373596,0.4756007492542267,-0.2873668968677521,0.7220103740692139,-0.028479574248194695,0.007067703176289797,0.16698837280273438,0,0,0
574111256,d4-ca-6e-f1-69-80,0.40056562423706055,-0.4933752119541168,-0.252255916595459,-0.7297226786613464,-0.00921689160168171,-0.0206186231225729,0.021572113037109375,0,0,0
574211258,d4-ca-6e-f1-69-20,0.6317270398139954,-0.3728597164154053,-0.40675514936447144,-0.5444692969322205,-0.011265053413808346,0.0151392025873065,0.08680057525634766,0,0,0
574211258,d4-ca-6e-f1-65-50,0.809580385684967,0.12368150800466537,-0.5402622222900391,0.19338878989219666,-0.010594961233437061,-0.015435469336807728,0.010344505310058594,0,0,0
574211258,d4-ca-6e-f1-6a-7d,0.41220200061798096,0.4756205677986145,-0.28733691573143005,0.7220194339752197,0.01658611372113228,-0.027345245704054832,0.14818382263183594,0,0,0
574211258,d4-ca-6e-f1-69-80,0.4005647897720337,-0.49334287643432617,-0.25226983428001404,-0.7297401428222656,0.008523442782461643,0.013124681077897549,0.024030685424804688,0,0,0
574261259,d4-ca-6e-f1-74-d2,0.8139129877090454,-0.12067011743783951,-0.5438999533653259,-0.16479502618312836,0.02069774642586708,0.030323108658194542,-0.039707183837890625,0,0,0
574311260,d4-ca-6e-f1-69-80,0.4005626142024994,-0.4933696389198303,-0.25226891040802,-0.7297236323356628,-0.003828665241599083,-0.02191835083067417,0.02651691436767578,0,0,0
574311260,d4-ca-6e-f1-69-20,0.6317198872566223,-0.37285467982292175,-0.4067435562610626,-0.5444897413253784,0.027587532997131348,-0.0013692403445020318,0.08162689208984375,0,0,0
574311260,d4-ca-6e-f1-65-50,0.8095881938934326,0.12365738302469254,-0.540259063243866,0.19338011741638184,0.00883412640541792,-0.0009969795355573297,0.028814315795898438,0,0,0
574311260,d4-ca-6e-f1-6a-7d,0.4122038185596466,0.4756210148334503,-0.28731730580329895,0.722025990486145,-0.014800581149756908,0.006307982839643955,0.15334224700927734,0,0,0
574411262,d4-ca-6e-f1-69-20,0.6317173838615417,-0.37287798523902893,-0.4067239761352539,-0.5444913506507874,-0.007929569110274315,0.024058710783720016,0.08060836791992188,0,0,0
574411262,d4-ca-6e-f1-65-50,0.8095890283584595,0.12365859001874924,-0.5402640104293823,0.19336262345314026,-0.020008433610200882,-0.015315219759941101,0.023809432983398438,0,0,0
574411262,d4-ca-6e-f1-6a-7d,0.4122164845466614,0.4756328761577606,-0.2873014211654663,0.7220172882080078,0.0015676080947741866,-0.005871908739209175,0.15696144104003906,0,0,0
574411262,d4-ca-6e-f1-69-80,0.4005512297153473,-0.4933599829673767,-0.2522673010826111,-0.7297369241714478,-0.010071046650409698,0.010136089287698269,0.026656150817871094,0,0,0
574511264,d4-ca-6e-f1-69-20,0.6317034959793091,-0.3728676736354828,-0.40673625469207764,-0.5445052981376648,0.016422167420387268,-0.012356466613709927,0.07800483703613281,0,0,0
574511264,d4-ca-6e-f1-65-50,0.8095865249633789,0.123663030564785,-0.5402702689170837,0.19335244596004486,-0.005932928062975407,0.008946441113948822,0.013886451721191406,0,0,0
574511264,d4-ca-6e-f1-6a-7d,0.41221219301223755,0.47563430666923523,-0.28732410073280334,0.7220097184181213,-0.02272936701774597,0.008400734513998032,0.1488056182861328,0,0,0
574511264,d4-ca-6e-f1-69-80,0.40056300163269043,-0.4933812916278839,-0.2522697150707245,-0.7297152280807495,0.001194117940030992,-0.01748586632311344,0.029395103454589844,0,0,0
574511264,d4-ca-6e-f1-74-d2,0.8139062523841858,-0.12063948065042496,-0.5439275503158569,-0.16475875675678253,0.0111094880849123,0.008501539006829262,-0.03020954132080078,0,0,0
574611266,d4-ca-6e-f1-69-80,0.4005030393600464,-0.4933297336101532,-0.2522820830345154,-0.7297787666320801,0.004879958461970091,0.022630909457802773,0.02892780303955078,0,0,0
574611266,d4-ca-6e-f1-65-50,0.809617817401886,0.12364692986011505,-0.5402018427848816,0.19342327117919922,-0.005496630445122719,-0.013725148513913155,0.028634071350097656,0,0,0
574611266,d4-ca-6e-f1-6a-7d,0.4122419059276581,0.47567102313041687,-0.2872188091278076,0.7220104932785034,0.005532284267246723,0.006681965664029121,0.15097522735595703,0,0,0
574611266,d4-ca-6e-f1-69-20,0.6317059993743896,-0.3728049099445343,-0.40676170587539673,-0.5445265173912048,-0.002135442802682519,-0.0025706226006150246,0.06520938873291016,0,0,0
574711268,d4-ca-6e-f1-69-20,0.6317217946052551,-0.3727967441082001,-0.4067411720752716,-0.5445289611816406,0.017424622550606728,-0.004490822087973356,0.08199405670166016,0,0,0
574711268,d4-ca-6e-f1-65-50,0.8096168637275696,0.12361972033977509,-0.5402128100395203,0.19341373443603516,-0.0008028585580177605,0.013770521618425846,0.003704071044921875,0,0,0
574711268,d4-ca-6e-f1-6a-7d,0.4122326374053955,0.4756951928138733,-0.28718993067741394,0.7220112681388855,0.001940539455972612,-0.010914361104369164,0.14789962768554688,0,0,0
574711268,d4-ca-6e-f1-69-80,0.40050140023231506,-0.4933372735977173,-0.25229114294052124,-0.7297714948654175,0.0011292991694062948,-0.014611712656915188,0.018581390380859375,0,0,0
574761269,d4-ca-6e-f1-74-d2,0.8139381408691406,-0.120606429874897,-0.5438956618309021,-0.1647307425737381,-0.016782246530056,-0.006429685279726982,-0.03458595275878906,0,0,0
574811270,d4-ca-6e-f1-6a-7d,0.41219547390937805,0.4757271111011505,-0.28720822930336,0.722004234790802,0.009607033804059029,0.013006889261305332,0.1590728759765625,0,0,0
574811270,d4-ca-6e-f1-69-80,0.4005391001701355,-0.49334800243377686,-0.2523028254508972,-0.7297393679618835,-0.01223565824329853,0.006794570479542017,0.021445274353027344,0,0,0
574811270,d4-ca-6e-f1-69-20,0.6317319273948669,-0.372798353433609,-0.4067394435405731,-0.5445173382759094,-0.026312168687582016,-0.005756129045039415,0.07527446746826172,0,0,0
574811270,d4-ca-6e-f1-65-50,0.8096063733100891,0.12364350259304047,-0.5402235388755798,0.19341252744197845,0.012691512703895569,-0.019382037222385406,0.013936996459960938,0,0,0
574911272,d4-ca-6e-f1-6a-7d,0.4122081398963928,0.4757479727268219,-0.2871447503566742,0.7220085263252258,-0.016102654859423637,-0.017887741327285767,0.1409015655517578,0,0,0
574911272,d4-ca-6e-f1-69-80,0.400532990694046,-0.49332907795906067,-0.25231868028640747,-0.7297500967979431,0.018726585432887077,0.0015641436912119389,0.018983840942382812,0,0,0
574911272,d4-ca-6e-f1-69-20,0.6317534446716309,-0.37276405096054077,-0.40671324729919434,-0.5445354580879211,0.01511327549815178,-0.0038477755151689053,0.09165000915527344,0,0,0
574911272,d4-ca-6e-f1-65-50,0.8096190094947815,0.12363071739673615,-0.5402142405509949,0.19339357316493988,-0.0197120551019907,0.024379117414355278,0.0131683349609375,0,0,0
575011274,d4-ca-6e-f1-69-80,0.4005378782749176,-0.493380606174469,-0.25233766436576843,-0.7297060489654541,-0.00804858934134245,0.02437632344663143,0.021012306213378906,0,0,0
575011274,d4-ca-6e-f1-69-20,0.6317377686500549,-0.37278544902801514,-0.40669748187065125,-0.5445508360862732,-0.0057527762837708,0.032156139612197876,0.0713205337524414,0,0,0
575011274,d4-ca-6e-f1-65-50,0.8096022605895996,0.12362033873796463,-0.5402445197105408,0.19338610768318176,-0.024577932432293892,-0.025768809020519257,0.02253246307373047,0,0,0
575011274,d4-ca-6e-f1-74-d2,0.8139201998710632,-0.12064241617918015,-0.5439264178276062,-0.16469219326972961,-0.030329367145895958,0.008830438368022442,-0.05533027648925781,0,0,0
575011274,d4-ca-6e-f1-6a-7d,0.4121702313423157,0.47576016187667847,-0.2871706783771515,0.7220118641853333,0.04047294333577156,-0.007907217368483543,0.14704227447509766,0,0,0
575111276,d4-ca-6e-f1-69-20,0.6317209005355835,-0.3728480041027069,-0.4067300260066986,-0.5445032119750977,0.004607272334396839,-0.04051261767745018,0.0675821304321289,0,0,0
575111276,d4-ca-6e-f1-65-50,0.8095645308494568,0.12363127619028091,-0.5402950644493103,0.19339591264724731,0.029071882367134094,0.0207504965364933,0.020041465759277344,0,0,0
575111276,d4-ca-6e-f1-6a-7d,0.41215068101882935,0.4757983386516571,-0.2871983051300049,0.7219868302345276,-0.017196081578731537,0.027720971032977104,0.1620035171508789,0,0,0
575111276,d4-ca-6e-f1-69-80,0.40056416392326355,-0.4934248924255371,-0.25234436988830566,-0.7296592593193054,-0.019960377365350723,-0.030978895723819733,0.018903732299804688,0,0,0
575211278,d4-ca-6e-f1-69-80,0.4005424976348877,-0.49341145157814026,-0.25235551595687866,-0.7296764850616455,-0.035920098423957825,-0.005532392766326666,0.03293132781982422,0,0,0
575211278,d4-ca-6e-f1-69-20,0.6317087411880493,-0.37280821800231934,-0.4067375361919403,-0.5445390343666077,-0.01855984516441822,-0.0039382982067763805,0.10225963592529297,0,0,0
575211278,d4-ca-6e-f1-65-50,0.8095713257789612,0.12366969883441925,-0.5402761697769165,0.19339536130428314,0.021882811561226845,-0.031207438558340073,0.03286170959472656,0,0,0
575211278,d4-ca-6e-f1-6a-7d,0.41218680143356323,0.475797563791275,-0.28716331720352173,0.721980631351471,0.029607420787215233,0.012627587653696537,0.182830810546875,0,0,0
575261279,d4-ca-6e-f1-74-d2,0.8139150142669678,-0.12059791386127472,-0.5439215302467346,-0.1647658795118332,0.058795977383852005,-0.03432242572307587,-0.05322265625,0,0,0
575311280,d4-ca-6e-f1-69-20,0.6316980123519897,-0.3727063536643982,-0.4067026674747467,-0.544647216796875,-0.008179680444300175,-0.046134863048791885,0.10109615325927734,0,0,0
575311280,d4-ca-6e-f1-65-50,0.8096644878387451,0.12368475645780563,-0.5401507616043091,0.1933460831642151,0.040072742849588394,0.009569372050464153,0.050307273864746094,0,0,0
575311280,d4-ca-6e-f1-6a-7d,0.4122941493988037,0.47574350237846375,-0.28704965114593506,0.722000241279602,0.0006448348867706954,0.03318452090024948,0.1694478988647461,0,0,0
575311280,d4-ca-6e-f1-69-80,0.4005070626735687,-0.4932904541492462,-0.2523576021194458,-0.729776918888092,-0.025375425815582275,-0.023812847211956978,0.05797863006591797,0,0,0
575411282,d4-ca-6e-f1-65-50,0.8097550272941589,0.12373637408018112,-0.5400083065032959,0.1933317333459854,-0.1589101105928421,0.016018278896808624,0.028516769409179688,0,0,0
575411282,d4-ca-6e-f1-6a-7d,0.4123535752296448,0.4756720960140228,-0.28694072365760803,0.72205650806427,-0.012585008516907692,-0.15188086032867432,0.12973785400390625,0,0,0
575411282,d4-ca-6e-f1-69-80,0.40051016211509705,-0.4931589961051941,-0.2523931562900543,-0.7298518419265747,0.13928477466106415,0.058071572333574295,0.0026979446411132812,0,0,0
575411282,d4-ca-6e-f1-69-20,0.6317269206047058,-0.3725931644439697,-0.40666189789772034,-0.5447214841842651,0.0667668953537941,0.12930627167224884,0.07444095611572266,0,0,0
575511284,d4-ca-6e-f1-69-80,0.40053385496139526,-0.4933937191963196,-0.25236600637435913,-0.7296895980834961,-0.12612155079841614,-0.007816247642040253,0.1402750015258789,0,0,0
575511284,d4-ca-6e-f1-74-d2,0.813933253288269,-0.120615653693676,-0.5438730120658875,-0.16482315957546234,0.01568390429019928,-0.12188954651355743,0.08593273162841797,0,0,0
575511284,d4-ca-6e-f1-69-20,0.6316730380058289,-0.3728008270263672,-0.40671154856681824,-0.5446048974990845,-0.07825635373592377,-0.07503866404294968,0.19679546356201172,0,0,0
575511284,d4-ca-6e-f1-65-50,0.8096227049827576,0.12366084009408951,-0.5402188897132874,0.19334545731544495,0.11041450500488281,-0.04951952025294304,0.15810585021972656,0,0,0
575511284,d4-ca-6e-f1-6a-7d,0.41226136684417725,0.47576385736465454,-0.28715261816978455,0.7219644784927368,0.025700973346829414,0.10916238278150558,0.2791910171508789,0,0,0
575611286,d4-ca-6e-f1-69-80,0.4005475342273712,-0.4932183027267456,-0.25238022208213806,-0.7297956943511963,0.11978260427713394,0.002201155526563525,0.013676643371582031,0,0,0
575611286,d4-ca-6e-f1-69-20,0.6317235827445984,-0.3726362884044647,-0.40666142106056213,-0.5446962714195251,0.06521862000226974,0.0748714730143547,0.0634164810180664,0,0,0
575611286,d4-ca-6e-f1-65-50,0.8097401261329651,0.12371304631233215,-0.5400465726852417,0.19330209493637085,-0.097188800573349,0.05746104568243027,0.015576362609863281,0,0,0
575611286,d4-ca-6e-f1-6a-7d,0.41233697533607483,0.47568780183792114,-0.2869779169559479,0.7220409512519836,-0.03349676728248596,-0.10167180001735687,0.1341543197631836,0,0,0
575711288,d4-ca-6e-f1-69-20,0.6317079067230225,-0.3727283477783203,-0.4067007005214691,-0.544622004032135,-0.036291129887104034,0.00018417467072140425,0.06269168853759766,0,0,0
575711288,d4-ca-6e-f1-65-50,0.8096828460693359,0.12363255023956299,-0.5401405096054077,0.1933310627937317,-0.005312008783221245,-0.03977815434336662,0.03199481964111328,0,0,0
575711288,d4-ca-6e-f1-6a-7d,0.4122891128063202,0.4757198691368103,-0.28706252574920654,0.722013533115387,0.05122995004057884,0.02709692344069481,0.14520263671875,0,0,0
575711288,d4-ca-6e-f1-69-80,0.40055879950523376,-0.49330177903175354,-0.25238341093063354,-0.7297320365905762,-0.019750945270061493,0.017780231311917305,0.023604393005371094,0,0,0
575761289,d4-ca-6e-f1-74-d2,0.8139448165893555,-0.12063883244991302,-0.5438480377197266,-0.16483156383037567,0.024222098290920258,-0.13565750420093536,-0.0113067626953125,0,0,0
575811290,d4-ca-6e-f1-69-80,0.40054836869239807,-0.4933454394340515,-0.2524225413799286,-0.7296946048736572,-0.03901597484946251,-0.0511113777756691,0.026708602905273438,0,0,0
575811290,d4-ca-6e-f1-69-20,0.6316978931427002,-0.3727324604988098,-0.406766802072525,-0.5445815920829773,-0.013237107545137405,-0.0693071186542511,0.08488845825195312,0,0,0
575811290,d4-ca-6e-f1-65-50,0.8096635937690735,0.12365587800741196,-0.5401578545570374,0.19334837794303894,0.06479640305042267,0.02067539468407631,0.022047042846679688,0,0,0
575811290,d4-ca-6e-f1-6a-7d,0.412252813577652,0.4757869839668274,-0.2870848476886749,0.7219811081886292,-0.02517538145184517,0.05904765427112579,0.16418170928955078,0,0,0
575911292,d4-ca-6e-f1-69-20,0.6317234039306641,-0.37267211079597473,-0.4067387878894806,-0.5446141958236694,0.021567435935139656,0.08222483098506927,0.07267284393310547,0,0,0
575911292,d4-ca-6e-f1-65-50,0.8096910119056702,0.12366529554128647,-0.540113627910614,0.19335108995437622,-0.06837529689073563,0.012549917213618755,0.022111892700195312,0,0,0
575911292,d4-ca-6e-f1-6a-7d,0.4122735559940338,0.4757647216320038,-0.2870497703552246,0.7219977974891663,0.015467878431081772,-0.05631498247385025,0.15466594696044922,0,0,0
575911292,d4-ca-6e-f1-69-80,0.4005642533302307,-0.49326956272125244,-0.25243955850601196,-0.7297313213348389,0.0545162633061409,0.038209762424230576,0.021986007690429688,0,0,0
576011294,d4-ca-6e-f1-69-20,0.6317028403282166,-0.3727460503578186,-0.406742125749588,-0.5445849895477295,-0.0399106964468956,-0.07702949643135071,0.09567546844482422,0,0,0
576011294,d4-ca-6e-f1-65-50,0.8096653819084167,0.12365670502185822,-0.5401608347892761,0.1933317929506302,0.07422373443841934,-0.019462501630187035,0.029601097106933594,0,0,0
576011294,d4-ca-6e-f1-6a-7d,0.4122140407562256,0.4757777452468872,-0.2870992124080658,0.7220036387443542,0.028278391808271408,0.06787502020597458,0.16579437255859375,0,0,0
576011294,d4-ca-6e-f1-69-80,0.40056052803993225,-0.49333280324935913,-0.2524508535861969,-0.7296867370605469,-0.06171237304806709,-0.0030563161708414555,0.031703948974609375,0,0,0
576011294,d4-ca-6e-f1-74-d2,0.8139958381652832,-0.12056215852499008,-0.5437931418418884,-0.16481703519821167,0.02754216082394123,-0.08330473303794861,-0.036116600036621094,0,0,0
576111296,d4-ca-6e-f1-6a-7d,0.41230228543281555,0.4756785035133362,-0.28698796033859253,0.7220628261566162,-0.023640183731913567,-0.06194102764129639,0.14092445373535156,0,0,0
576111296,d4-ca-6e-f1-69-80,0.40056702494621277,-0.49316948652267456,-0.25242072343826294,-0.7298040390014648,0.0683484748005867,0.004615542478859425,0.0114898681640625,0,0,0
576111296,d4-ca-6e-f1-69-20,0.6317452192306519,-0.37261223793029785,-0.4066699147224426,-0.5446813702583313,0.03898736461997032,0.03799563646316528,0.07907676696777344,0,0,0
576111296,d4-ca-6e-f1-65-50,0.8097693920135498,0.12368246912956238,-0.5400112867355347,0.19329741597175598,-0.06297387927770615,0.01998317614197731,0.014170646667480469,0,0,0
576211298,d4-ca-6e-f1-69-80,0.40058645606040955,-0.49318310618400574,-0.25240200757980347,-0.7297905087471008,-0.04061967879533768,-0.0025909622199833393,0.03674793243408203,0,0,0
576211298,d4-ca-6e-f1-69-20,0.631742537021637,-0.37263214588165283,-0.40666112303733826,-0.5446773767471313,-0.01946149580180645,-0.04055977985262871,0.08434009552001953,0,0,0
576211298,d4-ca-6e-f1-65-50,0.8097566366195679,0.12366906553506851,-0.5400316715240479,0.1933024823665619,0.04642542824149132,-0.007018194999545813,0.026755332946777344,0,0,0
576211298,d4-ca-6e-f1-6a-7d,0.4122828543186188,0.47566118836402893,-0.28700557351112366,0.7220784425735474,0.009001090191304684,0.05454789102077484,0.16264724731445312,0,0,0
576261299,d4-ca-6e-f1-74-d2,0.8140840530395508,-0.12044546753168106,-0.5436664819717407,-0.16488444805145264,0.045999858528375626,-0.009598316624760628,-0.028787612915039062,0,0,0
576311300,d4-ca-6e-f1-69-20,0.6317718029022217,-0.3725411891937256,-0.4066179096698761,-0.5447379350662231,0.027486281469464302,0.034760959446430206,0.07502555847167969,0,0,0
576311300,d4-ca-6e-f1-65-50,0.809814989566803,0.1236770749092102,-0.5399476289749146,0.193287655711174,-0.04575444385409355,0.006719693541526794,0.0025386810302734375,0,0,0
576311300,d4-ca-6e-f1-6a-7d,0.41234248876571655,0.4756057858467102,-0.2869543433189392,0.7221011519432068,-0.0005333019071258605,-0.049456264823675156,0.14194774627685547,0,0,0
576311300,d4-ca-6e-f1-69-80,0.4005841612815857,-0.493097722530365,-0.25241032242774963,-0.7298465967178345,0.041886106133461,0.01839444600045681,0.0201873779296875,0,0,0
576411302,d4-ca-6e-f1-69-80,0.4005950391292572,-0.4931672513484955,-0.25240838527679443,-0.729794442653656,-0.0009047804633155465,0.04504188522696495,0.025343894958496094,0,0,0
576411302,d4-ca-6e-f1-69-20,0.6317524909973145,-0.37261882424354553,-0.40662896633148193,-0.5446988940238953,-0.023953882977366447,0.03075515851378441,0.0771493911743164,0,0,0
576411302,d4-ca-6e-f1-65-50,0.8097665905952454,0.12366028875112534,-0.5400129556655884,0.1933189332485199,-0.010080881416797638,-0.017396684736013412,0.0026311874389648438,0,0,0
576411302,d4-ca-6e-f1-6a-7d,0.4122861623764038,0.4756784737110138,-0.2870161831378937,0.7220608592033386,0.038530729711055756,-0.009819148108363152,0.14870071411132812,0,0,0
576511304,d4-ca-6e-f1-74-d2,0.8140645623207092,-0.1204540878534317,-0.5437069535255432,-0.16484035551548004,0.033282868564128876,-0.011913017369806767,-0.042778968811035156,0,0,0
576511304,d4-ca-6e-f1-69-20,0.6317545771598816,-0.37262842059135437,-0.4066603481769562,-0.5446665287017822,0.0005809101858176291,-0.05955122783780098,0.09399700164794922,0,0,0
576511304,d4-ca-6e-f1-65-50,0.8097406029701233,0.12365835905075073,-0.5400540828704834,0.19331422448158264,0.029312383383512497,0.017981616780161858,0.024207115173339844,0,0,0
576511304,d4-ca-6e-f1-69-80,0.4005753695964813,-0.4932003617286682,-0.2524034082889557,-0.7297844886779785,-0.021387843415141106,-0.03652738034725189,0.029386520385742188,0,0,0
576511304,d4-ca-6e-f1-6a-7d,0.4122812747955322,0.4756878614425659,-0.2870432734489441,0.7220467329025269,-0.006178792100399733,0.04589682072401047,0.1857433319091797,0,0,0
576611306,d4-ca-6e-f1-69-20,0.6317809820175171,-0.37255337834358215,-0.40661734342575073,-0.5447192788124084,0.01587769016623497,0.0332169309258461,0.10346221923828125,0,0,0
576611306,d4-ca-6e-f1-65-50,0.8098087310791016,0.12370529025793076,-0.5399525761604309,0.19328221678733826,-0.05111204832792282,-0.007681358139961958,0.022291183471679688,0,0,0
576611306,d4-ca-6e-f1-6a-7d,0.4123223125934601,0.4756522476673126,-0.2869463264942169,0.7220853567123413,0.0065784333273768425,-0.04243237152695656,0.15763282775878906,0,0,0
576611306,d4-ca-6e-f1-69-80,0.40061601996421814,-0.49310553073883057,-0.25238895416259766,-0.7298312187194824,0.038336943835020065,0.04124953970313072,0.03341960906982422,0,0,0
576711308,d4-ca-6e-f1-69-80,0.4005993902683258,-0.49312159419059753,-0.2523946464061737,-0.7298276424407959,-0.0348593033850193,-0.013576623983681202,0.03838539123535156,0,0,0
576711308,d4-ca-6e-f1-69-20,0.6317619681358337,-0.3725639879703522,-0.40663808584213257,-0.5447187423706055,-0.011076184920966625,-0.029181404039263725,0.08841800689697266,0,0,0
576711308,d4-ca-6e-f1-65-50,0.809812605381012,0.1236625462770462,-0.5399607419967651,0.1932709962129593,0.033448267728090286,-0.013904741033911705,0.015655517578125,0,0,0
576711308,d4-ca-6e-f1-6a-7d,0.412313848733902,0.4756484925746918,-0.28694942593574524,0.7220913171768188,-0.0008485669386573136,0.02735217474400997,0.14973068237304688,0,0,0
576761309,d4-ca-6e-f1-74-d2,0.8141396641731262,-0.12035418301820755,-0.5436129570007324,-0.16485293209552765,-0.03562125936150551,0.012620882131159306,-0.029241561889648438,0,0,0
576811310,d4-ca-6e-f1-65-50,0.809809148311615,0.12363880127668381,-0.5399602651596069,0.1933020055294037,-0.014283372089266777,0.013675416819751263,0.01887989044189453,0,0,0
576811310,d4-ca-6e-f1-6a-7d,0.41230350732803345,0.4756430685520172,-0.28695255517959595,0.7220996022224426,-0.003124934621155262,0.005384874064475298,0.16023540496826172,0,0,0
576811310,d4-ca-6e-f1-69-80,0.40058961510658264,-0.49313294887542725,-0.2523651421070099,-0.7298355102539062,0.023899905383586884,-0.002530166646465659,0.023491859436035156,0,0,0
576811310,d4-ca-6e-f1-69-20,0.6317647695541382,-0.3725764751434326,-0.4066334366798401,-0.5447103977203369,0.014339921064674854,-0.0002892257762141526,0.07525634765625,0,0,0
576911312,d4-ca-6e-f1-69-20,0.6317574381828308,-0.3726486563682556,-0.40665268898010254,-0.5446552038192749,-0.025682756677269936,-0.04638519510626793,0.08855056762695312,0,0,0
576911312,d4-ca-6e-f1-65-50,0.8097456097602844,0.12363016605377197,-0.5400524139404297,0.1933160424232483,0.04005530849099159,-0.004973722156137228,0.035330772399902344,0,0,0
576911312,d4-ca-6e-f1-6a-7d,0.41224798560142517,0.47568267583847046,-0.28701484203338623,0.7220804691314697,0.008373466320335865,0.03726541996002197,0.1550130844116211,0,0,0
576911312,d4-ca-6e-f1-69-80,0.4005926251411438,-0.4932023882865906,-0.25237810611724854,-0.7297824621200562,-0.018017603084445,-0.006404987070709467,0.023191452026367188,0,0,0
577011314,d4-ca-6e-f1-6a-7d,0.41219690442085266,0.47575873136520386,-0.287060022354126,0.7220414876937866,0.013615291565656662,-0.02328312024474144,0.14662551879882812,0,0,0
577011314,d4-ca-6e-f1-69-80,0.4006021022796631,-0.4932560324668884,-0.2523786425590515,-0.7297407984733582,0.002558999927714467,0.00566851207986474,0.02068614959716797,0,0,0
577011314,d4-ca-6e-f1-69-20,0.631752073764801,-0.3726973831653595,-0.40666553378105164,-0.544618546962738,0.008505785837769508,0.005388897377997637,0.0971841812133789,0,0,0
577011314,d4-ca-6e-f1-65-50,0.8097127676010132,0.1236381009221077,-0.540086030960083,0.19335441291332245,-0.014023649506270885,-0.016069911420345306,0.02359485626220703,0,0,0
577011314,d4-ca-6e-f1-74-d2,0.8140600323677063,-0.12041354924440384,-0.5437613129615784,-0.1647140383720398,-0.005140798166394234,-0.009376033209264278,-0.025488853454589844,0,0,0
577111316,d4-ca-6e-f1-69-20,0.61449134349823,-0.3949524760246277,-0.42845413088798523,-0.5318272113800049,-0.3191000521183014,2.801889181137085,0.8072099685668945,0,0,0
577111316,d4-ca-6e-f1-65-50,0.7921507954597473,0.1277352273464203,-0.5668254494667053,0.1867881864309311,-1.6581809520721436,-0.9967154860496521,0.45357799530029297,0,0,0
577111316,d4-ca-6e-f1-6a-7d,0.4048255383968353,0.4978024959564209,-0.30249282717704773,0.7048455476760864,1.1165876388549805,-1.974063515663147,0.5924701690673828,0,0,0
577111316,d4-ca-6e-f1-69-80,0.3898063898086548,-0.5178191065788269,-0.26315322518348694,-0.7146082520484924,1.440708041191101,2.1284615993499756,0.5064506530761719,0,0,0
577211318,d4-ca-6e-f1-69-20,0.5235248804092407,-0.49258044362068176,-0.5345630645751953,-0.4444420039653778,1.365421175956726,-2.3230018615722656,1.1868467330932617,0,0,0
577211318,d4-ca-6e-f1-65-50,0.6644094586372375,0.15769965946674347,-0.7124398946762085,0.16161850094795227,4.868947982788086,3.501802921295166,0.09496021270751953,0,0,0
577211318,d4-ca-6e-f1-6a-7d,0.3345859944820404,0.6240524649620056,-0.38037145137786865,0.5949189066886902,-2.9475324153900146,3.5278480052948,0.5659427642822266,0,0,0
577211318,d4-ca-6e-f1-69-80,0.33274099230766296,-0.6497055292129517,-0.330455482006073,-0.5983022451400757,-2.0828559398651123,-4.47995138168335,0.9341335296630859,0,0,0
577261319,d4-ca-6e-f1-74-d2,0.6714226007461548,-0.1682845503091812,-0.7106977105140686,-0.12562166154384613,-1.684450387954712,0.1675618588924408,-0.41849327087402344,0,0,0
577311320,d4-ca-6e-f1-6a-7d,0.32126808166503906,0.6249852776527405,-0.3988976776599884,0.5891188979148865,-0.56129390001297,1.0281497240066528,0.8449668884277344,0,0,0
577311320,d4-ca-6e-f1-69-80,0.3340665400028229,-0.6667445302009583,-0.3217870593070984,-0.5833565592765808,-0.6577414274215698,-0.7275006771087646,0.5078678131103516,0,0,0
577311320,d4-ca-6e-f1-69-20,0.5176811814308167,-0.5122118592262268,-0.5346077680587769,-0.42876577377319336,-0.11988721042871475,-0.9319676756858826,-0.07640647888183594,0,0,0
577311320,d4-ca-6e-f1-65-50,0.6514257788658142,0.14487437903881073,-0.7257230877876282,0.16727812588214874,0.8957549929618835,0.4479601979255676,0.8534250259399414,0,0,0
577411322,d4-ca-6e-f1-69-80,0.2814481854438782,-0.6002042293548584,-0.37816813588142395,-0.646166205406189,-2.4801154136657715,-0.7942637801170349,2.8090085983276367,0,0,0
577411322,d4-ca-6e-f1-69-20,0.4902198016643524,-0.4333188533782959,-0.563506007194519,-0.5043613910675049,-0.48183849453926086,-0.4267696142196655,2.187319755554199,0,0,0
577411322,d4-ca-6e-f1-65-50,0.6975579261779785,0.21601663529872894,-0.6759108901023865,0.0994710922241211,4.504924297332764,-0.6080334782600403,3.341327667236328,0,0,0
577411322,d4-ca-6e-f1-6a-7d,0.4029185473918915,0.6379275918006897,-0.31328800320625305,0.5766764879226685,0.3787967562675476,3.582587242126465,3.25137996673584,0,0,0
577511324,d4-ca-6e-f1-69-20,0.4290654957294464,-0.3171429932117462,-0.5692709684371948,-0.62550288438797,-0.7179815173149109,0.6278437376022339,-0.3153810501098633,0,0,0
577511324,d4-ca-6e-f1-65-50,0.7607993483543396,0.28783220052719116,-0.5814098119735718,-0.0173175148665905,-6.7555928230285645,-3.7112057209014893,-1.9526591300964355,0,0,0
577511324,d4-ca-6e-f1-6a-7d,0.5324981212615967,0.618748664855957,-0.1962767243385315,0.5432049036026001,3.3481128215789795,-4.969851016998291,-1.4871912002563477,0,0,0
577511324,d4-ca-6e-f1-69-80,0.18555930256843567,-0.4902656376361847,-0.42408469319343567,-0.738484799861908,1.889644742012024,3.89932918548584,-1.2212085723876953,0,0,0
577511324,d4-ca-6e-f1-74-d2,0.6826208829879761,0.014912918210029602,-0.6501038074493408,-0.33342403173446655,-2.477409839630127,0.4630562365055084,-0.8393011093139648,0,0,0
577611326,d4-ca-6e-f1-69-80,0.14857017993927002,-0.5563717484474182,-0.5259864926338196,-0.6258718967437744,2.4505701065063477,-2.5728249549865723,-5.236897945404053,0,0,0
577611326,d4-ca-6e-f1-65-50,0.6421422958374023,0.36880624294281006,-0.6716006994247437,-0.024242928251624107,-0.19808903336524963,5.8041911125183105,-8.513313293457031,0,0,0
577611326,d4-ca-6e-f1-69-20,0.3557572364807129,-0.33805376291275024,-0.6870356202125549,-0.5358530282974243,1.7537506818771362,1.0903491973876953,-1.7891340255737305,0,0,0
577611326,d4-ca-6e-f1-6a-7d,0.4556170701980591,0.7402054071426392,-0.1994936764240265,0.45245036482810974,-4.522093772888184,-0.7361143231391907,-6.732124328613281,0,0,0
577711328,d4-ca-6e-f1-69-20,0.33728447556495667,-0.4772212505340576,-0.7392897605895996,-0.33458900451660156,-0.11931747198104858,-0.17308810353279114,-0.43686771392822266,0,0,0
577711328,d4-ca-6e-f1-65-50,0.46881937980651855,0.3287060558795929,-0.8162788152694702,0.07648526132106781,0.3779478967189789,-2.5515384674072266,1.3686151504516602,0,0,0
577711328,d4-ca-6e-f1-6a-7d,0.2619590163230896,0.8171984553337097,-0.3275914192199707,0.39528244733810425,2.013615369796753,0.40106505155563354,1.0706806182861328,0,0,0
577711328,d4-ca-6e-f1-69-80,0.20038127899169922,-0.7065366506576538,-0.5235439538955688,-0.43192023038864136,-1.0426949262619019,1.0265434980392456,0.5328121185302734,0,0,0
577761329,d4-ca-6e-f1-74-d2,0.44781869649887085,-0.05601794645190239,-0.8903954029083252,-0.05930135026574135,2.2933266162872314,-0.8646963834762573,0.926112174987793,0,0,0
577811330,d4-ca-6e-f1-6a-7d,0.2096630185842514,0.8005068898200989,-0.34373995661735535,0.44392895698547363,-2.548691749572754,2.598482847213745,6.162599563598633,0,0,0
577811330,d4-ca-6e-f1-69-20,0.3952619433403015,-0.49071693420410156,-0.7210695743560791,-0.2881385385990143,0.644620954990387,-0.7443930506706238,1.0082225799560547,0,0,0
577811330,d4-ca-6e-f1-65-50,0.4685889184474945,0.3056662678718567,-0.8155582547187805,0.1478433758020401,3.5989503860473633,2.9803359508514404,7.616466522216797,0,0,0
577811330,d4-ca-6e-f1-69-80,0.2696230113506317,-0.7116554975509644,-0.5000592470169067,-0.41326838731765747,-0.875146746635437,-2.6118414402008057,4.437699317932129,0,0,0
577911332,d4-ca-6e-f1-69-80,0.2540152966976166,-0.5391629338264465,-0.42680492997169495,-0.680159866809845,-0.7259621620178223,-0.46843844652175903,-1.0031967163085938,0,0,0
577911332,d4-ca-6e-f1-69-20,0.4719873070716858,-0.36202090978622437,-0.593619167804718,-0.5420196652412415,0.4739784300327301,1.0959725379943848,0.6892290115356445,0,0,0
577911332,d4-ca-6e-f1-65-50,0.7226154804229736,0.27881479263305664,-0.6293032169342041,0.06377109885215759,2.9029040336608887,0.2974587082862854,-2.786210060119629,0,0,0
577911332,d4-ca-6e-f1-6a-7d,0.44656094908714294,0.647516667842865,-0.23607201874256134,0.5705922245979309,-0.28256916999816895,1.8792245388031006,-1.7475385665893555,0,0,0
578011334,d4-ca-6e-f1-74-d2,0.7806286215782166,0.06403859704732895,-0.48290616273880005,-0.39156097173690796,-0.3103942275047302,1.4974405765533447,-0.17319869995117188,0,0,0
578011334,d4-ca-6e-f1-69-20,0.48406311869621277,-0.19048061966896057,-0.45245230197906494,-0.7243529558181763,0.6294562816619873,-1.0655920505523682,0.6920480728149414,0,0,0
578011334,d4-ca-6e-f1-65-50,0.8747523427009583,0.2641196548938751,-0.4054032266139984,-0.026412030681967735,-8.678022384643555,-0.22563476860523224,-1.7630033493041992,0,0,0
578011334,d4-ca-6e-f1-6a-7d,0.6182358264923096,0.4752991795539856,-0.09318886697292328,0.6190243363380432,0.21114179491996765,-6.19285249710083,-1.2583932876586914,0,0,0
578011334,d4-ca-6e-f1-69-80,0.20575638115406036,-0.327534019947052,-0.3555150628089905,-0.8508790135383606,3.4264872074127197,1.6114803552627563,-0.7731904983520508,0,0,0
578111336,d4-ca-6e-f1-69-20,0.4188844561576843,-0.34040454030036926,-0.6225194931030273,-0.5666835308074951,0.09232985228300095,1.5350215435028076,-0.7840023040771484,0,0,0
578111336,d4-ca-6e-f1-65-50,0.7048359513282776,0.31594371795654297,-0.6350194811820984,0.01167606096714735,-1.8088796138763428,-2.407867431640625,-3.0757875442504883,0,0,0
578111336,d4-ca-6e-f1-6a-7d,0.47252845764160156,0.6772431135177612,-0.21323104202747345,0.5221030116081238,2.1109461784362793,-1.5571993589401245,-2.465670108795166,0,0,0
578111336,d4-ca-6e-f1-69-80,0.19863931834697723,-0.5354203581809998,-0.46428200602531433,-0.6769858598709106,0.45188653469085693,2.0628604888916016,-2.110208511352539,0,0,0
578211338,d4-ca-6e-f1-6a-7d,0.2721993029117584,0.7992766499519348,-0.3116251230239868,0.43583762645721436,-3.737497329711914,4.492645740509033,1.022822380065918,0,0,0
578211338,d4-ca-6e-f1-69-80,0.23008136451244354,-0.6834244132041931,-0.5161228179931641,-0.4621809720993042,-1.5702366828918457,-4.151478290557861,-0.2770729064941406,0,0,0
578211338,d4-ca-6e-f1-69-20,0.37457218766212463,-0.4577028453350067,-0.7264318466186523,-0.35000079870224,1.469720482826233,-0.9887111186981201,-2.661531448364258,0,0,0
578211338,d4-ca-6e-f1-65-50,0.505377471446991,0.32817625999450684,-0.7921343445777893,0.09704302251338959,6.119818687438965,4.135578632354736,2.0193872451782227,0,0,0
578261339,d4-ca-6e-f1-74-d2,0.5468856692314148,-0.07068770378828049,-0.8258110880851746,-0.1181340143084526,0.8979262113571167,-0.4858246445655823,0.922454833984375,0,0,0
578311340,d4-ca-6e-f1-69-20,0.45826002955436707,-0.4481315314769745,-0.6191660761833191,-0.4536624550819397,0.20895332098007202,0.7112510800361633,1.6422863006591797,0,0,0
578311340,d4-ca-6e-f1-65-50,0.6437402963638306,0.24688346683979034,-0.7168022394180298,0.10412270575761795,0.9278335571289062,0.1790366768836975,2.016228675842285,0,0,0
578311340,d4-ca-6e-f1-6a-7d,0.36219093203544617,0.6889200210571289,-0.31939685344696045,0.5405485033988953,-0.08835858106613159,0.41076138615608215,2.128162384033203,0,0,0
578311340,d4-ca-6e-f1-69-80,0.2719038724899292,-0.6321723461151123,-0.4177965223789215,-0.5931887030601501,-0.08491748571395874,-0.035873159766197205,1.9588441848754883,0,0,0
578411342,d4-ca-6e-f1-69-20,0.4437675476074219,-0.4606025815010071,-0.5877102017402649,-0.49549221992492676,1.3914636373519897,1.2059519290924072,-0.5499029159545898,0,0,0
578411342,d4-ca-6e-f1-65-50,0.6674054265022278,0.21281372010707855,-0.7102565765380859,0.06939678639173508,-1.221551775932312,1.5329301357269287,-5.09614372253418,0,0,0
578411342,d4-ca-6e-f1-6a-7d,0.40377575159072876,0.6608064770698547,-0.3396887481212616,0.533771276473999,-1.201393961906433,-1.421505093574524,-3.8977108001708984,0,0,0
578411342,d4-ca-6e-f1-69-80,0.24404452741146088,-0.634701669216156,-0.38354364037513733,-0.6248925924301147,1.6637868881225586,-0.2522237002849579,-2.9137349128723145,0,0,0
578511344,d4-ca-6e-f1-69-80,0.2894710898399353,-0.6749563217163086,-0.36350175738334656,-0.573155403137207,0.5829026699066162,0.663724422454834,1.7031230926513672,0,0,0
578511344,d4-ca-6e-f1-74-d2,0.6223097443580627,-0.14839865267276764,-0.7545979619026184,-0.1459125578403473,-0.6347571015357971,0.580883264541626,1.0156326293945312,0,0,0
578511344,d4-ca-6e-f1-69-20,0.4678083658218384,-0.5051156282424927,-0.5834537148475647,-0.43080785870552063,0.22976237535476685,1.0309040546417236,0.4451751708984375,0,0,0
578511344,d4-ca-6e-f1-65-50,0.6294716596603394,0.18367192149162292,-0.7442968487739563,0.12669813632965088,-0.6134111881256104,-0.3433651924133301,2.9271860122680664,0,0,0
578511344,d4-ca-6e-f1-6a-7d,0.33557477593421936,0.6652302145957947,-0.3840753436088562,0.5452930927276611,0.31751883029937744,-0.7360056042671204,2.4741668701171875,0,0,0
578611346,d4-ca-6e-f1-69-20,0.5100946426391602,-0.46243685483932495,-0.5374493598937988,-0.4869333505630493,0.33931031823158264,-0.9983671307563782,0.9332036972045898,0,0,0
578611346,d4-ca-6e-f1-65-50,0.7015649676322937,0.17071954905986786,-0.6800535321235657,0.1272348314523697,5.304592609405518,1.7595438957214355,4.935772895812988,0,0,0
578611346,d4-ca-6e-f1-6a-7d,0.3850656747817993,0.6098459959030151,-0.3495209813117981,0.5980364084243774,-1.6605955362319946,4.060427665710449,4.133861541748047,0,0,0
578611346,d4-ca-6e-f1-69-80,0.30899298191070557,-0.616116464138031,-0.33431845903396606,-0.6427715420722961,-2.127924680709839,-2.521038055419922,3.013890266418457,0,0,0
578711348,d4-ca-6e-f1-65-50,0.7975010275840759,0.15092600882053375,-0.5835819244384766,0.0254069734364748,-4.259543418884277,0.9850810766220093,-8.555896759033203,0,0,0
578711348,d4-ca-6e-f1-6a-7d,0.5258523225784302,0.5266568660736084,-0.29787710309028625,0.5978137850761414,-0.6321426033973694,-3.4048430919647217,-6.6588592529296875,0,0,0
578711348,d4-ca-6e-f1-69-80,0.23499374091625214,-0.5285159945487976,-0.2911529242992401,-0.7620229125022888,2.4167449474334717,0.6872978806495667,-4.856119155883789,0,0,0
578711348,d4-ca-6e-f1-69-20,0.4819925129413605,-0.3971739411354065,-0.4647779166698456,-0.6276286244392395,0.6357269287109375,0.5629833340644836,-0.9911365509033203,0,0,0
578761349,d4-ca-6e-f1-74-d2,0.7166781425476074,-0.14922989904880524,-0.6143223643302917,-0.2944673001766205,-2.6181461811065674,1.2870099544525146,-2.3329601287841797,0,0,0
578811350,d4-ca-6e-f1-69-20,0.4823245406150818,-0.4971266984939575,-0.49522122740745544,-0.5243892669677734,-0.6079382300376892,1.039315104484558,-0.9039697647094727,0,0,0
578811350,d4-ca-6e-f1-6a-7d,0.42195025086402893,0.5775736570358276,-0.39262041449546814,0.5781140327453613,1.8691989183425903,-0.975529670715332,-1.5622797012329102,0,0,0
578811350,d4-ca-6e-f1-69-80,0.27194690704345703,-0.6361996531486511,-0.28451958298683167,-0.6635841727256775,0.12107199430465698,1.8981016874313354,-1.430403709411621,0,0,0
578911352,d4-ca-6e-f1-69-80,0.3347057104110718,-0.6633817553520203,-0.30205219984054565,-0.5972114205360413,-2.114992618560791,-1.7228806018829346,2.6194801330566406,0,0,0
578911352,d4-ca-6e-f1-69-20,0.5192046165466309,-0.5163658857345581,-0.5214158296585083,-0.4380849003791809,-0.5668051838874817,-1.3301751613616943,0.7622594833374023,0,0,0
578811350,d4-ca-6e-f1-65-50,0.7125878930091858,0.11721684783697128,-0.6862369179725647,0.08693451434373856,-1.2878338098526,-2.121245861053467,-1.961440086364746,0,0,0
578911352,d4-ca-6e-f1-65-50,0.6647619009017944,0.1278773993253708,-0.7174299359321594,0.16441835463047028,3.84365177154541,1.2009398937225342,4.301042556762695,0,0,0
578911352,d4-ca-6e-f1-6a-7d,0.3322884142398834,0.6072749495506287,-0.40614232420921326,0.5965316891670227,-1.0326147079467773,3.1582190990448,3.606678009033203,0,0,0
579011354,d4-ca-6e-f1-69-20,0.5118391513824463,-0.5185644626617432,-0.5010917782783508,-0.4669249653816223,0.3274422287940979,0.23706789314746857,2.920154571533203,0,0,0
579011354,d4-ca-6e-f1-65-50,0.6851250529289246,0.10909891128540039,-0.7059658765792847,0.14252513647079468,-2.0019888877868652,-0.5329445600509644,0.9087057113647461,0,0,0
579011354,d4-ca-6e-f1-74-d2,0.6772001385688782,-0.2008492350578308,-0.6904096007347107,-0.156186044216156,-0.49529486894607544,0.2899647057056427,4.738718032836914,0,0,0
579011354,d4-ca-6e-f1-6a-7d,0.3624109923839569,0.5864155292510986,-0.4119766056537628,0.5958610773086548,0.026752935722470284,-1.224677562713623,4.0815229415893555,0,0,0
579011354,d4-ca-6e-f1-69-80,0.31818661093711853,-0.6581263542175293,-0.28180763125419617,-0.6214591860771179,0.8514640927314758,0.7112412452697754,4.560581207275391,0,0,0
579111356,d4-ca-6e-f1-69-80,0.3247212767601013,-0.6553559899330139,-0.2860552966594696,-0.6190615296363831,0.21288900077342987,-0.008983655832707882,-0.16631507873535156,0,0,0
579111356,d4-ca-6e-f1-69-20,0.5170234441757202,-0.5146788954734802,-0.5025201439857483,-0.4639676809310913,0.19931432604789734,0.23443514108657837,0.12055110931396484,0,0,0
579111356,d4-ca-6e-f1-65-50,0.6842326521873474,0.11410106718540192,-0.7046128511428833,0.1494234800338745,0.5354748964309692,0.47635629773139954,-0.3085956573486328,0,0,0
579111356,d4-ca-6e-f1-6a-7d,0.3565816283226013,0.5891672372817993,-0.4075709283351898,0.5996813178062439,-0.038190316408872604,-0.5471920967102051,-0.1869640350341797,0,0,0
579211358,d4-ca-6e-f1-69-20,0.5348801016807556,-0.49423205852508545,-0.49597635865211487,-0.4729119837284088,-0.07128141075372696,-0.4046185612678528,-0.25117015838623047,0,0,0
